Timestamp,Local time,Counter,Interpolated,Accelerometer X,Accelerometer Y,Accelerometer Z,Magnetometer X,Magnetometer Y,Magnetometer Z,Quaternion 0,Quaternion 1,Quaternion 2,Quaternion 3
1783986139.3039,16:42:19.303,2,false,0.265471,-0.490356,0.359863,0.748047,0.930068,-0.280522,-0.267826,-20.072035,-63.516057,13.353752
1783986139.3353,16:42:19.335,3,false,0.265501,-0.490295,0.359924,0.748047,0.926162,-0.292729,-0.260502,-20.113508,-63.489926,13.319361
1783986139.3666,16:42:19.366,4,false,0.265472,-0.490173,0.359985,0.748108,0.936904,-0.289311,-0.270756,-20.091018,-63.376685,13.303363
1783986139.3979,16:42:19.397,5,false,0.265233,-0.490295,0.359741,0.74823,0.92372,-0.271244,-0.259525,-20.085731,-63.364492,13.124473
1783986139.4293,16:42:19.429,6,false,0.264948,-0.490356,0.359741,0.748291,0.92665,-0.291752,-0.260502,-20.125834,-63.308656,13.142917
1783986139.4606,16:42:19.460,7,false,0.264656,-0.490417,0.359619,0.748413,0.928115,-0.277592,-0.270268,-20.132019,-63.422896,13.219333
1783986139.4918,16:42:19.491,8,false,0.264836,-0.490234,0.359863,0.748352,0.937392,-0.290288,-0.259525,-20.092724,-63.406081,13.153522
1783986139.5229,16:42:19.522,9,false,0.264753,-0.490234,0.359924,0.748352,0.928115,-0.278569,-0.260014,-20.17699,-63.36104,13.154108
1783986139.554,16:42:19.554,10,false,0.265141,-0.48999,0.360352,0.748169,0.931044,-0.284916,-0.255619,-20.237875,-63.350411,13.274266
1783986139.5852,16:42:19.585,11,false,0.265379,-0.489868,0.360596,0.748047,0.938857,-0.284916,-0.255131,-20.187994,-63.370753,13.277731
1783986139.6163,16:42:19.616,12,false,0.265533,-0.489746,0.360901,0.747925,0.926162,-0.279057,-0.26392,-20.247779,-63.433922,13.355619
1783986139.6475,16:42:19.647,13,false,0.265592,-0.489807,0.360901,0.747864,0.922255,-0.279545,-0.265385,-20.271677,-63.371142,13.321042
1783986139.6788,16:42:19.678,14,false,0.265539,-0.489929,0.360901,0.747803,0.932998,-0.288823,-0.264408,-20.323094,-63.284734,13.289922
1783986139.7101,16:42:19.710,15,false,0.265877,-0.489929,0.360779,0.747742,0.92665,-0.290776,-0.270268,-20.279645,-63.29669,13.127329
1783986139.7415,16:42:19.741,16,false,0.265622,-0.490112,0.360718,0.747742,0.915419,-0.282963,-0.260502,-20.120911,-63.262588,13.025857
1783986139.7728,16:42:19.772,17,false,0.266196,-0.48999,0.36084,0.747559,0.931044,-0.291264,-0.270268,-20.112634,-63.336573,13.128933
1783986139.8042,16:42:19.804,18,false,0.266539,-0.48999,0.36084,0.747437,0.939834,-0.279057,-0.253666,-20.090232,-63.268576,13.161885
1783986139.8355,16:42:19.835,19,false,0.26656,-0.490662,0.360291,0.747253,0.926162,-0.303471,-0.256596,-20.055116,-63.222331,13.251358
1783986139.8668,16:42:19.866,20,false,0.266812,-0.490845,0.360107,0.747131,0.931533,-0.28394,-0.247807,-20.128188,-63.180712,13.257114
1783986139.898,16:42:19.898,21,false,0.267466,-0.490723,0.360168,0.746948,0.931533,-0.269291,-0.254643,-20.089276,-63.068485,13.262294
1783986139.9291,16:42:19.929,22,false,0.267272,-0.490784,0.360229,0.746948,0.934951,-0.273686,-0.259525,-19.979487,-63.04225,13.311818
1783986139.9603,16:42:19.960,23,false,0.267478,-0.490723,0.360413,0.746826,0.930556,-0.299565,-0.242435,-20.045168,-62.928915,13.296575
1783986139.9914,16:42:19.991,24,false,0.267626,-0.490601,0.360596,0.746765,0.92372,-0.288334,-0.260014,-19.984651,-63.00636,13.357624
1783986140.0226,16:42:20.022,25,false,0.267932,-0.490295,0.360657,0.746826,0.940322,-0.287358,-0.267826,-19.885323,-63.105968,13.427523
1783986140.0537,16:42:20.053,26,false,0.267821,-0.490356,0.360657,0.746826,0.924697,-0.288334,-0.258549,-19.91556,-63.061031,13.430616
1783986140.085,16:42:20.085,27,false,0.268149,-0.490356,0.360413,0.746826,0.925673,-0.287846,-0.257572,-19.97268,-63.11031,13.343677
1783986140.1164,16:42:20.116,28,false,0.267914,-0.490479,0.360168,0.746948,0.937881,-0.277592,-0.264897,-19.949319,-63.079893,13.414971
1783986140.1477,16:42:20.147,29,false,0.267738,-0.490479,0.360046,0.74707,0.932998,-0.280522,-0.258061,-19.958202,-63.022609,13.404366
1783986140.1791,16:42:20.179,30,false,0.267537,-0.49054,0.359985,0.747131,0.929091,-0.276127,-0.26685,-19.936289,-63.000962,13.320052
1783986140.2104,16:42:20.210,31,false,0.267702,-0.49054,0.359863,0.747131,0.929091,-0.273686,-0.258549,-20.096013,-63.131017,13.3638
1783986140.2417,16:42:20.241,0,false,0.267619,-0.49054,0.359924,0.747131,0.935927,-0.274662,-0.254643,-20.075273,-63.158344,13.238681
1783986140.2729,16:42:20.272,1,false,0.267271,-0.490723,0.35968,0.747253,0.932998,-0.286381,-0.258549,-20.011745,-63.0334,13.230751
1783986140.304,16:42:20.304,2,false,0.267027,-0.490845,0.359314,0.747437,0.933974,-0.261479,-0.258549,-20.029339,-62.846181,13.253522
1783986140.3352,16:42:20.335,3,false,0.266939,-0.490845,0.359253,0.747498,0.933486,-0.268315,-0.262455,-19.970404,-63.006669,13.2142
1783986140.3663,16:42:20.366,4,false,0.266798,-0.490784,0.359314,0.747559,0.934951,-0.28101,-0.262943,-19.947271,-62.986616,13.148903
1783986140.3974,16:42:20.397,5,false,0.266851,-0.490662,0.359314,0.74762,0.930556,-0.26685,-0.272221,-20.105897,-63.088198,13.164904
1783986140.4286,16:42:20.428,6,false,0.266794,-0.490234,0.359558,0.747803,0.925673,-0.293217,-0.262943,-20.114076,-63.119807,13.19426
1783986140.4599,16:42:20.459,7,false,0.267197,-0.489929,0.359802,0.747742,0.932509,-0.269291,-0.271244,-20.166299,-62.998717,13.295449
1783986140.4913,16:42:20.491,8,false,0.267078,-0.48999,0.35968,0.747803,0.928603,-0.279545,-0.264897,-20.213299,-62.994412,13.251934
1783986140.5226,16:42:20.522,9,false,0.267079,-0.489624,0.359924,0.747925,0.936416,-0.297124,-0.26685,-20.135968,-63.065308,13.242679
1783986140.5539,16:42:20.553,10,false,0.267332,-0.489441,0.359985,0.747925,0.929091,-0.292241,-0.26978,-20.036463,-63.099206,13.054903
1783986140.5853,16:42:20.585,11,false,0.26769,-0.48938,0.359802,0.747925,0.924697,-0.293706,-0.262455,-20.051585,-63.159621,13.095258
1783986140.6166,16:42:20.616,12,false,0.267972,-0.489685,0.359558,0.747742,0.915908,-0.278569,-0.267338,-20.110057,-63.109319,12.952132
1783986140.648,16:42:20.648,13,false,0.268401,-0.489502,0.359741,0.74762,0.921279,-0.289311,-0.253178,-20.043051,-63.138816,13.122395
1783986140.6793,16:42:20.679,14,false,0.268898,-0.489319,0.359619,0.74762,0.928115,-0.263432,-0.268803,-20.027607,-63.165363,13.230771
1783986140.7106,16:42:20.710,15,false,0.268927,-0.489258,0.35968,0.74762,0.938369,-0.268315,-0.274174,-19.894076,-63.219163,13.223632
1783986140.7418,16:42:20.741,16,false,0.269068,-0.489136,0.359741,0.74762,0.931044,-0.288334,-0.266361,-20.043068,-63.192814,13.142437
1783986140.7729,16:42:20.772,17,false,0.269068,-0.489136,0.359741,0.74762,0.931533,-0.277104,-0.268803,-20.087437,-63.154146,13.129178
1783986140.8041,16:42:20.804,18,false,0.26864,-0.489319,0.359558,0.747742,0.944717,-0.277592,-0.260014,-20.12737,-63.119345,12.967706
1783986140.8354,16:42:20.835,19,false,0.268381,-0.489502,0.359375,0.747803,0.927626,-0.274174,-0.259037,-19.983863,-62.998301,12.956966
1783986140.8667,16:42:20.866,20,false,0.268263,-0.489563,0.359253,0.747864,0.925673,-0.28687,-0.263432,-19.914522,-63.023946,12.887484
1783986140.8981,16:42:20.898,21,false,0.268241,-0.489441,0.359436,0.747864,0.931044,-0.279057,-0.267338,-20.016608,-63.017118,12.914674
1783986140.9294,16:42:20.929,22,false,0.268152,-0.489441,0.359375,0.747925,0.927138,-0.28101,-0.268315,-19.988854,-62.99602,12.924191
1783986140.9606,16:42:20.960,23,false,0.268064,-0.489441,0.359314,0.747986,0.938369,-0.283452,-0.270756,-20.038645,-62.902262,12.857986
1783986140.9919,16:42:20.991,24,false,0.267798,-0.489441,0.359131,0.748169,0.933486,-0.279545,-0.272221,-20.188134,-62.967419,12.723634
1783986141.0232,16:42:21.023,25,false,0.267828,-0.48938,0.359192,0.748169,0.935439,-0.281498,-0.26099,-20.217997,-62.921382,12.752254
1783986141.0544,16:42:21.054,26,false,0.267991,-0.48938,0.35907,0.748169,0.930068,-0.27808,-0.268315,-20.214966,-62.999581,12.763059
1783986141.0855,16:42:21.085,27,false,0.268103,-0.489319,0.35907,0.748169,0.919326,-0.281987,-0.261479,-20.242145,-62.980236,12.817645
1783986141.1167,16:42:21.116,28,false,0.268208,-0.489075,0.35907,0.748291,0.930068,-0.285405,-0.274174,-20.206792,-63.09741,12.747142
1783986141.1478,16:42:21.147,29,false,0.269021,-0.489136,0.358887,0.748047,0.933486,-0.27808,-0.271244,-20.204881,-63.053329,12.818273
1783986141.1791,16:42:21.179,30,false,0.26933,-0.48938,0.358704,0.747864,0.932509,-0.281498,-0.270268,-20.113439,-63.073471,12.942107
1783986141.2105,16:42:21.210,31,false,0.269993,-0.48938,0.358459,0.747742,0.925185,-0.264408,-0.279057,-20.001233,-63.01683,12.844204
1783986141.2418,16:42:21.241,0,false,0.269809,-0.489563,0.358093,0.747864,0.933974,-0.269291,-0.268803,-19.98997,-62.831268,12.800952
1783986141.2732,16:42:21.273,1,false,0.27006,-0.48938,0.358154,0.747864,0.928115,-0.272221,-0.265873,-20.009742,-62.843708,12.866703
1783986141.3045,16:42:21.304,2,false,0.269913,-0.489502,0.357971,0.747925,0.929091,-0.279545,-0.266361,-20.072398,-62.824997,12.97074
1783986141.3358,16:42:21.335,3,false,0.270509,-0.489319,0.358154,0.747742,0.92665,-0.272709,-0.267826,-19.964296,-62.867972,12.929788
1783986141.3672,16:42:21.367,4,false,0.27081,-0.489197,0.358093,0.747742,0.926162,-0.260502,-0.267826,-19.896912,-62.90665,12.892932
1783986141.3985,16:42:21.398,5,false,0.271184,-0.489258,0.357727,0.747742,0.937392,-0.26392,-0.275639,-19.970851,-62.956414,12.949485
1783986141.4297,16:42:21.429,6,false,0.271264,-0.489258,0.357666,0.747742,0.927138,-0.26685,-0.270268,-19.97758,-62.836709,13.03029
1783986141.4608,16:42:21.460,7,false,0.271257,-0.489258,0.357544,0.747803,0.928115,-0.262455,-0.268315,-20.058406,-62.803744,12.983383
1783986141.492,16:42:21.492,8,false,0.271139,-0.489319,0.357422,0.747864,0.935439,-0.266361,-0.26978,-19.951704,-62.923613,12.941168
1783986141.5231,16:42:21.523,9,false,0.271109,-0.48938,0.357361,0.747864,0.929091,-0.275639,-0.274662,-19.975302,-62.926819,12.992897
1783986141.5542,16:42:21.554,10,false,0.271109,-0.48938,0.357361,0.747864,0.935927,-0.265873,-0.272221,-19.951679,-62.914751,12.919822
1783986141.5856,16:42:21.585,11,false,0.271029,-0.48938,0.357422,0.747864,0.935439,-0.277592,-0.265385,-19.90051,-62.888935,12.869009
1783986141.6169,16:42:21.616,12,false,0.271109,-0.48938,0.357361,0.747864,0.930068,-0.278569,-0.266361,-19.824551,-62.790932,12.898046
1783986141.6483,16:42:21.648,13,false,0.270971,-0.489319,0.357422,0.747925,0.927626,-0.267338,-0.270268,-19.756188,-62.777499,12.894272
1783986141.6796,16:42:21.679,14,false,0.270853,-0.48938,0.3573,0.747986,0.939834,-0.26685,-0.269291,-19.634845,-62.750454,12.801152
1783986141.7109,16:42:21.710,15,false,0.270655,-0.489441,0.357239,0.748047,0.933974,-0.267826,-0.267338,-19.645268,-62.726115,12.851929
1783986141.7423,16:42:21.742,16,false,0.271051,-0.489319,0.357361,0.747925,0.926162,-0.26392,-0.270268,-19.699509,-62.719163,12.987351
1783986141.7734,16:42:21.773,17,false,0.270883,-0.489319,0.357361,0.747986,0.927138,-0.272221,-0.265873,-19.793189,-62.787675,12.929784
1783986141.8046,16:42:21.804,18,false,0.270772,-0.48938,0.357361,0.747986,0.927138,-0.288334,-0.262455,-19.727962,-62.849337,12.952744
1783986141.8359,16:42:21.835,19,false,0.270516,-0.48938,0.3573,0.748108,0.945693,-0.281498,-0.275151,-19.773934,-62.85997,13.003315
1783986141.867,16:42:21.867,20,false,0.270596,-0.48938,0.357239,0.748108,0.94374,-0.272221,-0.26978,-19.919986,-62.899448,12.899291
1783986141.8982,16:42:21.898,21,false,0.270352,-0.489746,0.357178,0.747986,0.919814,-0.270268,-0.271244,-19.916848,-62.97984,12.850531
1783986141.9293,16:42:21.929,22,false,0.2705,-0.489624,0.357361,0.747925,0.923232,-0.277104,-0.261479,-19.928978,-63.0821,12.866462
1783986141.9605,16:42:21.960,23,false,0.270323,-0.489624,0.357239,0.748047,0.932021,-0.274662,-0.264897,-19.954849,-63.069457,12.791077
1783986141.9918,16:42:21.991,24,false,0.270661,-0.489624,0.357239,0.747925,0.935439,-0.284428,-0.273198,-20.022994,-63.028171,12.932584
1783986142.0231,16:42:22.023,25,false,0.270719,-0.489685,0.357239,0.747864,0.932509,-0.265873,-0.26392,-20.02451,-63.080737,12.895448
1783986142.0545,16:42:22.054,26,false,0.271262,-0.489624,0.357422,0.74762,0.937392,-0.258549,-0.26392,-20.01092,-62.963553,12.996611
1783986142.0858,16:42:22.085,27,false,0.271144,-0.489685,0.3573,0.747681,0.921767,-0.266361,-0.26978,-19.938873,-62.947811,12.997934
1783986142.1172,16:42:22.117,28,false,0.271247,-0.489624,0.357178,0.747742,0.952529,-0.280522,-0.26978,-19.888985,-62.888782,12.984171
1783986142.1483,16:42:22.148,29,false,0.271078,-0.489624,0.357178,0.747803,0.914931,-0.277104,-0.270268,-19.814178,-62.865563,13.001692
1783986142.1794,16:42:22.179,30,false,0.271306,-0.489502,0.3573,0.747742,0.933486,-0.280522,-0.267338,-19.851529,-62.949344,13.017461
1783986142.2106,16:42:22.210,31,false,0.271541,-0.48938,0.357544,0.74762,0.937881,-0.271244,-0.268315,-19.885145,-62.920069,13.181191
1783986142.2417,16:42:22.241,0,false,0.271915,-0.489136,0.357849,0.747498,0.928115,-0.282475,-0.263432,-19.84063,-62.863814,13.358456
1783986142.2729,16:42:22.272,1,false,0.271885,-0.489197,0.357788,0.747498,0.936416,-0.280034,-0.265873,-19.636074,-62.828138,13.278733
1783986142.304,16:42:22.304,2,false,0.272104,-0.489258,0.357666,0.747437,0.935927,-0.285405,-0.262455,-19.646374,-62.945568,13.251844
1783986142.3351,16:42:22.335,3,false,0.272329,-0.489319,0.357666,0.747314,0.948623,-0.284428,-0.261479,-19.730413,-63.006394,13.332321
1783986142.3665,16:42:22.366,4,false,0.27227,-0.489441,0.357544,0.747314,0.931044,-0.271733,-0.266361,-19.77614,-62.971414,13.21035
1783986142.3978,16:42:22.397,5,false,0.272692,-0.489441,0.357605,0.747131,0.932021,-0.271244,-0.26978,-19.847202,-63.029656,13.220207
1783986142.4292,16:42:22.429,6,false,0.273534,-0.489441,0.357727,0.746765,0.934951,-0.271244,-0.269291,-19.881251,-63.022257,13.109447
1783986142.4605,16:42:22.460,7,false,0.27359,-0.489685,0.357605,0.746643,0.939834,-0.269291,-0.271244,-19.986663,-62.910922,13.144348
1783986142.4918,16:42:22.491,8,false,0.274146,-0.489746,0.357605,0.746399,0.92372,-0.267338,-0.265873,-19.991812,-63.020074,13.056128
1783986142.523,16:42:22.523,9,false,0.274333,-0.489868,0.357422,0.746338,0.934463,-0.267826,-0.270756,-20.011399,-63.013634,13.036546
1783986142.5541,16:42:22.554,10,false,0.274381,-0.490112,0.357178,0.746277,0.942763,-0.271733,-0.268315,-20.014074,-63.037745,12.989014
1783986142.5853,16:42:22.585,11,false,0.275014,-0.490173,0.357117,0.746033,0.92665,-0.271733,-0.264897,-19.926758,-62.894953,13.035958
1783986142.6164,16:42:22.616,12,false,0.275436,-0.490356,0.357178,0.745728,0.932509,-0.264897,-0.274662,-19.937897,-62.661764,13.108116
1783986142.6475,16:42:22.647,13,false,0.275758,-0.490906,0.356812,0.745422,0.919814,-0.265873,-0.267826,-19.888107,-62.661247,13.262781
1783986142.6787,16:42:22.678,14,false,0.276275,-0.490845,0.35675,0.7453,0.919814,-0.26392,-0.265385,-19.947972,-62.720597,13.237487
1783986142.71,16:42:22.710,15,false,0.276703,-0.490906,0.356079,0.745422,0.944717,-0.278569,-0.260502,-20.106528,-62.80392,13.24463
1783986142.7414,16:42:22.741,16,false,0.277189,-0.490906,0.355957,0.7453,0.932998,-0.258549,-0.273198,-20.159506,-62.789188,13.340782
1783986142.7727,16:42:22.772,17,false,0.278294,-0.490784,0.355774,0.745056,0.936416,-0.262943,-0.264897,-20.14737,-62.790882,13.382457
1783986142.8041,16:42:22.804,18,false,0.278854,-0.490784,0.355591,0.744934,0.932509,-0.250736,-0.271244,-20.10654,-62.7625,13.270427
1783986142.8354,16:42:22.835,19,false,0.279328,-0.490784,0.355347,0.744873,0.927626,-0.254154,-0.261967,-20.264193,-62.826679,13.259322
1783986142.8667,16:42:22.866,20,false,0.280148,-0.490723,0.355042,0.744751,0.934951,-0.247318,-0.267338,-20.211681,-62.944255,13.339051
1783986142.8979,16:42:22.897,21,false,0.280413,-0.490845,0.354919,0.744629,0.931044,-0.252689,-0.272709,-20.209281,-63.065027,13.141638
1783986142.929,16:42:22.929,22,false,0.280483,-0.490845,0.354736,0.74469,0.945693,-0.255131,-0.26978,-20.177214,-62.949415,13.143412
1783986142.9602,16:42:22.960,23,false,0.281266,-0.490723,0.354797,0.744446,0.945205,-0.251225,-0.278569,-20.432477,-62.979948,13.159963
1783986142.9913,16:42:22.991,24,false,0.281402,-0.490601,0.354858,0.744446,0.931533,-0.253666,-0.268315,-20.437905,-62.932659,13.144951
1783986143.0224,16:42:23.022,25,false,0.281813,-0.490417,0.355042,0.744324,0.941787,-0.251225,-0.272221,-20.532514,-62.800376,12.996855
1783986143.0536,16:42:23.053,26,false,0.281706,-0.490479,0.355042,0.744324,0.930556,-0.26392,-0.272709,-20.483077,-62.920583,12.998154
1783986143.0847,16:42:23.084,27,false,0.282069,-0.490234,0.355347,0.744202,0.936416,-0.255131,-0.269291,-20.513354,-62.953999,12.954461
1783986143.1161,16:42:23.116,28,false,0.282603,-0.490112,0.355347,0.74408,0.936416,-0.249271,-0.277592,-20.555556,-62.924259,13.049722
1783986143.1474,16:42:23.147,29,false,0.282665,-0.490112,0.355042,0.744202,0.936904,-0.245365,-0.264897,-20.518769,-62.897493,12.985919
1783986143.1787,16:42:23.178,30,false,0.282989,-0.489929,0.355164,0.744141,0.939834,-0.248295,-0.271244,-20.410892,-62.948172,13.033173
1783986143.2101,16:42:23.210,31,false,0.283124,-0.489807,0.355225,0.744141,0.937392,-0.253666,-0.279057,-20.612879,-62.844245,13.120563
1783986143.2414,16:42:23.241,0,false,0.28304,-0.489807,0.355164,0.744202,0.932509,-0.24683,-0.265385,-20.749805,-62.765665,13.18426
1783986143.2726,16:42:23.272,1,false,0.283095,-0.489868,0.355164,0.744141,0.955947,-0.252201,-0.255619,-20.723501,-62.665035,13.166818
1783986143.3039,16:42:23.303,2,false,0.283033,-0.489807,0.355042,0.744263,0.934951,-0.264408,-0.274174,-20.744689,-62.73896,13.061397
1783986143.335,16:42:23.335,3,false,0.283273,-0.489624,0.355103,0.744263,0.955459,-0.240482,-0.269291,-20.823573,-62.745678,13.08615
1783986143.3662,16:42:23.366,4,false,0.283575,-0.489502,0.355286,0.744141,0.94667,-0.253666,-0.282963,-20.655308,-62.632093,13.243011
1783986143.3973,16:42:23.397,5,false,0.283326,-0.48938,0.355652,0.744141,0.939345,-0.251713,-0.277104,-20.713222,-62.619589,13.324371
1783986143.4285,16:42:23.428,6,false,0.2833,-0.489258,0.355713,0.744202,0.934951,-0.260502,-0.276127,-20.615807,-62.488705,13.367687
1783986143.4598,16:42:23.459,7,false,0.283281,-0.489136,0.355896,0.744202,0.930068,-0.262455,-0.276127,-20.647764,-62.505494,13.24218
1783986143.4911,16:42:23.491,8,false,0.283386,-0.489075,0.355896,0.744202,0.934951,-0.248295,-0.270756,-20.676526,-62.445835,13.308669
1783986143.5225,16:42:23.522,9,false,0.283527,-0.488953,0.356079,0.744141,0.92372,-0.248295,-0.264897,-20.627642,-62.362234,13.218971
1783986143.5538,16:42:23.553,10,false,0.283011,-0.489014,0.355896,0.744385,0.924697,-0.259037,-0.267338,-20.478969,-62.361763,13.183104
1783986143.5852,16:42:23.585,11,false,0.283039,-0.488953,0.355957,0.744385,0.944228,-0.259037,-0.266361,-20.419933,-62.466015,13.150824
1783986143.6165,16:42:23.616,12,false,0.283145,-0.488892,0.355957,0.744385,0.934463,-0.263432,-0.271244,-20.531293,-62.470119,13.166634
1783986143.6476,16:42:23.647,13,false,0.28285,-0.489014,0.355896,0.744446,0.928115,-0.258549,-0.267826,-20.407209,-62.548582,13.255631
1783986143.6788,16:42:23.678,14,false,0.282991,-0.488892,0.356079,0.744385,0.930068,-0.257572,-0.28101,-20.415165,-62.574338,13.305822
1783986143.7099,16:42:23.709,15,false,0.28302,-0.488831,0.35614,0.744385,0.932509,-0.260502,-0.268803,-20.362509,-62.732102,13.216408
1783986143.7411,16:42:23.741,16,false,0.283132,-0.48877,0.356262,0.744324,0.943252,-0.258549,-0.26978,-20.479611,-62.814274,13.195752
1783986143.7722,16:42:23.772,17,false,0.283189,-0.488647,0.356384,0.744324,0.935439,-0.260014,-0.273198,-20.49528,-62.828414,13.192115
1783986143.8033,16:42:23.803,18,false,0.283084,-0.488708,0.356384,0.744324,0.925673,-0.254154,-0.267338,-20.673875,-62.64674,13.173887
1783986143.8345,16:42:23.834,19,false,0.282923,-0.488708,0.356384,0.744385,0.94374,-0.262455,-0.272709,-20.550487,-62.572956,13.202344
1783986143.8658,16:42:23.865,20,false,0.282952,-0.488647,0.356445,0.744385,0.939345,-0.268315,-0.279057,-20.588976,-62.431782,13.302725
1783986143.8972,16:42:23.897,21,false,0.283092,-0.488525,0.356628,0.744324,0.931533,-0.272221,-0.279545,-20.324539,-62.484171,13.183714
1783986143.9285,16:42:23.928,22,false,0.28336,-0.488281,0.35675,0.744324,0.926162,-0.260502,-0.26978,-20.280946,-62.471506,13.151373
1783986143.9598,16:42:23.959,23,false,0.283283,-0.488281,0.356812,0.744324,0.930068,-0.26099,-0.272221,-20.256666,-62.654507,13.167127
1783986143.9912,16:42:23.991,24,false,0.283339,-0.488159,0.356934,0.744324,0.94081,-0.256596,-0.27808,-20.309584,-62.639762,13.00186
1783986144.0225,16:42:24.022,25,false,0.282865,-0.488281,0.356506,0.744629,0.940322,-0.24976,-0.284916,-20.357209,-62.701261,13.032566
1783986144.0537,16:42:24.053,26,false,0.282836,-0.488342,0.356445,0.744629,0.94374,-0.256596,-0.268803,-20.489795,-62.592117,13.045248
1783986144.0848,16:42:24.084,27,false,0.282761,-0.488159,0.356628,0.74469,0.932509,-0.273686,-0.273198,-20.5194,-62.613519,12.996845
1783986144.116,16:42:24.116,28,false,0.2826,-0.488159,0.356628,0.744751,0.924697,-0.274174,-0.272709,-20.471275,-62.632781,12.923376
1783986144.1471,16:42:24.147,29,false,0.2823,-0.488098,0.356567,0.744934,0.933486,-0.26978,-0.277104,-20.442916,-62.605254,12.917069
1783986144.1782,16:42:24.178,30,false,0.28235,-0.487976,0.356567,0.744995,0.931533,-0.268315,-0.272709,-20.297762,-62.625342,12.956254
1783986144.2094,16:42:24.209,31,false,0.28197,-0.488098,0.356445,0.745117,0.926162,-0.24976,-0.264408,-20.197031,-62.613514,12.886843
1783986144.2407,16:42:24.240,0,false,0.281802,-0.488098,0.356323,0.745239,0.932021,-0.274662,-0.28394,-20.226004,-62.602868,12.824374
1783986144.2721,16:42:24.272,1,false,0.281795,-0.488098,0.356201,0.7453,0.94374,-0.255131,-0.276616,-20.147403,-62.638149,12.887782
1783986144.3034,16:42:24.303,2,false,0.281569,-0.48822,0.355957,0.745422,0.933486,-0.270756,-0.278569,-20.121524,-62.490455,12.840173
1783986144.3347,16:42:24.334,3,false,0.281535,-0.488098,0.355896,0.745544,0.928115,-0.253178,-0.280034,-20.023463,-62.581838,12.842186
1783986144.3661,16:42:24.366,4,false,0.281648,-0.488037,0.356018,0.745483,0.934463,-0.265385,-0.282475,-20.249239,-62.424822,12.858952
1783986144.3974,16:42:24.397,5,false,0.281409,-0.488037,0.356079,0.745544,0.929091,-0.262455,-0.274662,-20.168315,-62.477907,12.859087
1783986144.4286,16:42:24.428,6,false,0.281218,-0.488098,0.356018,0.745605,0.940322,-0.262455,-0.267826,-20.095483,-62.525683,12.814347
1783986144.4597,16:42:24.459,7,false,0.281064,-0.488098,0.35614,0.745605,0.941787,-0.263432,-0.269291,-20.224334,-62.538775,12.774081
1783986144.4908,16:42:24.490,8,false,0.281092,-0.488037,0.356201,0.745605,0.932509,-0.265385,-0.266361,-20.220669,-62.550557,12.842519
1783986144.5222,16:42:24.522,9,false,0.280931,-0.488037,0.356201,0.745667,0.94081,-0.264408,-0.281987,-20.337001,-62.785468,12.874205
1783986144.5533,16:42:24.553,10,false,0.281178,-0.487854,0.356384,0.745605,0.931533,-0.26685,-0.273198,-20.366931,-62.742673,12.872815
1783986144.5845,16:42:24.584,11,false,0.281158,-0.487732,0.356567,0.745605,0.941787,-0.273198,-0.274662,-20.468638,-62.838742,12.751933
1783986144.6158,16:42:24.615,12,false,0.281109,-0.487671,0.356689,0.745605,0.929091,-0.271244,-0.264408,-20.47045,-62.880343,12.777724
1783986144.6471,16:42:24.647,13,false,0.281222,-0.48761,0.356812,0.745544,0.927138,-0.256596,-0.267338,-20.412266,-62.932738,12.74112
1783986144.6785,16:42:24.678,14,false,0.281068,-0.487061,0.3573,0.745728,0.933974,-0.272221,-0.274174,-20.344946,-62.920077,12.723131
1783986144.7098,16:42:24.709,15,false,0.280962,-0.486938,0.357422,0.745789,0.94667,-0.268803,-0.273686,-20.40399,-62.923637,12.662079
1783986144.7412,16:42:24.741,16,false,0.28087,-0.486816,0.357788,0.745728,0.923232,-0.280034,-0.274174,-20.412267,-62.911887,12.726763
1783986144.7725,16:42:24.772,17,false,0.280792,-0.486633,0.357971,0.745789,0.927138,-0.272709,-0.26099,-20.344947,-62.751773,12.710209
1783986144.8036,16:42:24.803,18,false,0.280517,-0.486511,0.357971,0.745972,0.923232,-0.282963,-0.275639,-20.448852,-62.742255,12.605588
1783986144.8348,16:42:24.834,19,false,0.279613,-0.486694,0.357666,0.746338,0.927626,-0.273686,-0.274662,-20.392828,-62.763597,12.55629
1783986144.8659,16:42:24.865,20,false,0.279832,-0.486572,0.357788,0.746277,0.92958,-0.267338,-0.271733,-20.447083,-62.857574,12.616599
1783986144.8971,16:42:24.897,21,false,0.279888,-0.48645,0.35791,0.746277,0.925185,-0.269291,-0.267338,-20.555728,-63.001968,12.581154
1783986144.9282,16:42:24.928,22,false,0.279273,-0.486511,0.357544,0.746643,0.92958,-0.271244,-0.281498,-20.444154,-62.967431,12.489439
1783986144.9595,16:42:24.959,23,false,0.279542,-0.48645,0.357544,0.746582,0.92958,-0.262943,-0.273198,-20.403554,-62.996163,12.616248
1783986144.9909,16:42:24.990,24,false,0.279329,-0.486389,0.357666,0.746643,0.925673,-0.262455,-0.26978,-20.217475,-62.872483,12.685515
1783986145.0222,16:42:25.022,25,false,0.279329,-0.486389,0.357666,0.746643,0.936904,-0.279057,-0.275151,-20.214496,-62.925663,12.762809
1783986145.0536,16:42:25.053,26,false,0.279165,-0.486206,0.357788,0.746765,0.936904,-0.268315,-0.273686,-20.122092,-62.98848,12.712744
1783986145.0849,16:42:25.084,27,false,0.279384,-0.486084,0.35791,0.746704,0.932998,-0.279545,-0.269291,-20.038928,-63.149691,12.742453
1783986145.1162,16:42:25.116,28,false,0.278838,-0.486206,0.357788,0.746887,0.927138,-0.278569,-0.264408,-20.023896,-62.950843,12.709377
1783986145.1474,16:42:25.147,29,false,0.278945,-0.486145,0.357788,0.746887,0.932998,-0.270268,-0.275151,-20.100091,-63.056003,12.8441
1783986145.1785,16:42:25.178,30,false,0.279036,-0.485962,0.358093,0.746826,0.927626,-0.282475,-0.276616,-20.228481,-63.04597,12.845721
1783986145.2097,16:42:25.209,31,false,0.279311,-0.485718,0.358337,0.746765,0.931533,-0.274662,-0.270268,-20.17954,-63.171525,12.96681
1783986145.2408,16:42:25.240,0,false,0.279366,-0.485596,0.358459,0.746765,0.928603,-0.265385,-0.281498,-20.210262,-63.254617,12.896344
1783986145.2719,16:42:25.271,1,false,0.279231,-0.485535,0.358521,0.746826,0.918837,-0.279545,-0.26978,-20.088374,-63.209768,12.907694
1783986145.3031,16:42:25.303,2,false,0.279363,-0.485229,0.358704,0.746887,0.932021,-0.258549,-0.270756,-20.143166,-63.259128,12.858093
1783986145.3342,16:42:25.334,3,false,0.279246,-0.484924,0.358826,0.74707,0.92958,-0.274662,-0.279545,-19.983126,-63.333459,12.873268
1783986145.3656,16:42:25.365,4,false,0.279212,-0.48407,0.359497,0.747314,0.931044,-0.285405,-0.296147,-19.973674,-63.116235,12.82711
1783986145.3969,16:42:25.396,5,false,0.2791,-0.484131,0.359375,0.747375,0.938857,-0.267338,-0.282475,-20.054891,-63.010455,12.800522
1783986145.4283,16:42:25.428,6,false,0.279188,-0.483948,0.35968,0.747314,0.92372,-0.276616,-0.276616,-20.023309,-62.990023,12.716777
1783986145.4596,16:42:25.459,7,false,0.279045,-0.483521,0.359985,0.747498,0.926162,-0.282963,-0.276616,-20.114516,-63.106219,12.686268
1783986145.4909,16:42:25.490,8,false,0.278626,-0.483521,0.359802,0.747742,0.922255,-0.287846,-0.28687,-20.076971,-63.15098,12.539179
1783986145.5223,16:42:25.522,9,false,0.278398,-0.483459,0.35968,0.747925,0.931533,-0.290776,-0.279545,-20.11795,-63.161357,12.361938
1783986145.5534,16:42:25.553,10,false,0.278207,-0.483521,0.359619,0.747986,0.935439,-0.279545,-0.287846,-20.095016,-63.036111,12.47159
1783986145.5846,16:42:25.584,11,false,0.278367,-0.483337,0.359741,0.747986,0.92079,-0.278569,-0.284428,-20.074376,-63.072929,12.435692
1783986145.6157,16:42:25.615,12,false,0.278436,-0.483154,0.35968,0.748108,0.917861,-0.291752,-0.289799,-19.98103,-63.180834,12.58283
1783986145.6468,16:42:25.646,13,false,0.278463,-0.483093,0.359741,0.748108,0.92079,-0.276127,-0.285405,-19.971788,-63.158318,12.610577
1783986145.678,16:42:25.678,14,false,0.278926,-0.482788,0.360046,0.747986,0.912978,-0.28394,-0.287358,-19.993378,-63.257684,12.814996
1783986145.7091,16:42:25.709,15,false,0.278894,-0.482666,0.360107,0.748047,0.936904,-0.272709,-0.284916,-20.072624,-63.212529,12.864388
1783986145.7403,16:42:25.740,16,false,0.278343,-0.482788,0.359863,0.748291,0.925185,-0.267338,-0.281498,-20.009361,-63.186843,12.744349
1783986145.7716,16:42:25.771,17,false,0.277987,-0.482849,0.359802,0.748413,0.930068,-0.277592,-0.286381,-19.93747,-63.074003,12.666222
1783986145.8029,16:42:25.802,18,false,0.277683,-0.482971,0.359619,0.748535,0.922255,-0.281498,-0.284428,-19.812953,-62.957493,12.715538
1783986145.8343,16:42:25.834,19,false,0.27736,-0.482971,0.359741,0.748596,0.928603,-0.288334,-0.283452,-19.760704,-63.061988,12.670199
1783986145.8656,16:42:25.865,20,false,0.277415,-0.482849,0.359863,0.748596,0.919326,-0.285405,-0.276616,-19.848263,-63.126126,12.823794
1783986145.897,16:42:25.897,21,false,0.27788,-0.482361,0.360413,0.748474,0.94081,-0.302495,-0.288334,-19.942021,-63.318434,12.842399
1783986145.9281,16:42:25.928,22,false,0.277992,-0.4823,0.360535,0.748413,0.936416,-0.287846,-0.282475,-19.93668,-63.32702,12.904005
1783986145.9592,16:42:25.959,23,false,0.277445,-0.482422,0.360413,0.748596,0.936416,-0.274662,-0.280522,-19.946827,-63.3497,12.944496
1783986145.9904,16:42:25.990,24,false,0.277391,-0.482544,0.360291,0.748596,0.929091,-0.285893,-0.280034,-19.941005,-63.310297,12.995892
1783986146.0215,16:42:26.021,25,false,0.277419,-0.4823,0.360596,0.748596,0.919814,-0.272709,-0.277592,-19.636688,-63.394466,13.08701
1783986146.0527,16:42:26.052,26,false,0.277563,-0.482361,0.360657,0.748474,0.937392,-0.281498,-0.277104,-19.691788,-63.320679,12.914801
1783986146.0838,16:42:26.083,27,false,0.277032,-0.482666,0.360657,0.748474,0.926162,-0.280034,-0.273686,-19.621747,-63.314086,12.954213
1783986146.1149,16:42:26.114,28,false,0.276676,-0.482544,0.36084,0.748596,0.932021,-0.285893,-0.268803,-19.648433,-63.278244,13.004637
1783986146.1463,16:42:26.146,29,false,0.276271,-0.482727,0.360779,0.748657,0.925185,-0.302983,-0.271733,-19.522913,-63.290849,12.945342
1783986146.1776,16:42:26.177,30,false,0.276261,-0.482971,0.36084,0.748474,0.908583,-0.293217,-0.265385,-19.499667,-63.421823,13.026562
1783986146.209,16:42:26.209,31,false,0.276346,-0.482971,0.360901,0.748413,0.919326,-0.272709,-0.271733,-19.448838,-63.509793,12.875351
1783986146.2403,16:42:26.240,0,false,0.276346,-0.482971,0.360901,0.748413,0.931533,-0.282475,-0.28101,-19.373184,-63.499242,12.754216
1783986146.2716,16:42:26.271,1,false,0.276223,-0.482849,0.360779,0.748596,0.930068,-0.28394,-0.273686,-19.499496,-63.489747,12.719963
1783986146.303,16:42:26.303,2,false,0.276276,-0.48291,0.360657,0.748596,0.927626,-0.277104,-0.27808,-19.418777,-63.55597,12.659228
1783986146.3341,16:42:26.334,3,false,0.275503,-0.483337,0.360168,0.74884,0.915908,-0.297124,-0.273686,-19.405945,-63.555756,12.61952
1783986146.3653,16:42:26.365,4,false,0.274836,-0.483521,0.359924,0.749084,0.932021,-0.285405,-0.281498,-19.304673,-63.540609,12.523968
1783986146.3964,16:42:26.396,5,false,0.274617,-0.483459,0.360046,0.749146,0.92079,-0.296635,-0.261967,-19.392974,-63.452208,12.51274
1783986146.4275,16:42:26.427,6,false,0.274343,-0.483521,0.360046,0.749207,0.925673,-0.289311,-0.276616,-19.532261,-63.507231,12.412912
1783986146.4587,16:42:26.458,7,false,0.274402,-0.483582,0.360046,0.749146,0.935439,-0.285405,-0.270268,-19.642665,-63.526844,12.487558
1783986146.49,16:42:26.490,8,false,0.274385,-0.483826,0.359985,0.749023,0.918349,-0.277104,-0.280522,-19.742028,-63.514589,12.405202
1783986146.5214,16:42:26.521,9,false,0.274334,-0.484131,0.359741,0.748962,0.929091,-0.295171,-0.268803,-19.77164,-63.413836,12.420805
1783986146.5527,16:42:26.552,10,false,0.274309,-0.484741,0.359192,0.74884,0.926162,-0.291752,-0.270268,-19.768383,-63.502604,12.255401
1783986146.584,16:42:26.584,11,false,0.274766,-0.484863,0.359314,0.748535,0.928603,-0.276127,-0.276616,-19.810314,-63.52268,12.241122
1783986146.6154,16:42:26.615,12,false,0.275028,-0.485046,0.359375,0.748291,0.945205,-0.282475,-0.267338,-19.877958,-63.600564,12.243225
1783986146.6465,16:42:26.646,13,false,0.275505,-0.484741,0.359802,0.748108,0.922744,-0.280034,-0.268803,-19.714531,-63.670659,12.21521
1783986146.6779,16:42:26.677,14,false,0.275419,-0.484741,0.359741,0.748169,0.932509,-0.266361,-0.273686,-19.806708,-63.67393,12.234857
1783986146.709,16:42:26.709,15,false,0.275253,-0.484741,0.359741,0.74823,0.928115,-0.28101,-0.275639,-19.725175,-63.736689,12.312356
1783986146.7402,16:42:26.740,16,false,0.27567,-0.484375,0.360168,0.748108,0.92958,-0.28101,-0.26978,-19.756473,-63.643633,12.412012
1783986146.7713,16:42:26.771,17,false,0.275507,-0.484192,0.360413,0.748169,0.922744,-0.294194,-0.271244,-19.694917,-63.694468,12.486749
1783986146.8024,16:42:26.802,18,false,0.275457,-0.483948,0.360779,0.748169,0.92372,-0.298589,-0.277104,-19.714286,-63.66545,12.554012
1783986146.8336,16:42:26.833,19,false,0.275264,-0.484009,0.360718,0.74823,0.921767,-0.296147,-0.270756,-19.686857,-63.594472,12.330426
1783986146.8647,16:42:26.864,20,false,0.274618,-0.484131,0.360413,0.748535,0.922744,-0.280034,-0.281987,-19.73694,-63.650223,12.338552
1783986146.8961,16:42:26.896,21,false,0.274494,-0.484009,0.360291,0.748718,0.910536,-0.290776,-0.266361,-19.826876,-63.55086,12.241189
1783986146.9274,16:42:26.927,22,false,0.27444,-0.483704,0.360107,0.749023,0.915908,-0.284916,-0.283452,-19.848003,-63.521249,12.273193
1783986146.9587,16:42:26.958,23,false,0.274448,-0.483643,0.359802,0.749207,0.934463,-0.292729,-0.293706,-19.911879,-63.374968,12.272088
1783986146.9901,16:42:26.990,24,false,0.274636,-0.483582,0.359741,0.749207,0.92079,-0.28687,-0.272221,-19.834783,-63.482577,12.256141
1783986147.0214,16:42:27.021,25,false,0.275213,-0.483215,0.360046,0.749084,0.92079,-0.279057,-0.285405,-19.855119,-63.459794,12.361419
1783986147.0528,16:42:27.052,26,false,0.275095,-0.483093,0.360046,0.749207,0.92079,-0.285405,-0.28101,-19.738838,-63.379475,12.261769
1783986147.0839,16:42:27.083,27,false,0.275632,-0.482605,0.360291,0.749207,0.922744,-0.290776,-0.280522,-19.918307,-63.367002,12.261807
1783986147.115,16:42:27.115,28,false,0.275486,-0.482544,0.360229,0.749329,0.912978,-0.290776,-0.271733,-19.765799,-63.550177,12.456241
1783986147.1462,16:42:27.146,29,false,0.276146,-0.482178,0.360596,0.749146,0.913954,-0.291752,-0.280034,-19.837895,-63.550542,12.541509
1783986147.1773,16:42:27.177,30,false,0.276167,-0.481934,0.360779,0.749207,0.921279,-0.291264,-0.294194,-19.85792,-63.446193,12.513573
1783986147.2085,16:42:27.208,31,false,0.276247,-0.48175,0.360962,0.749207,0.934463,-0.284428,-0.277104,-19.741359,-63.591541,12.548246
1783986147.2398,16:42:27.239,0,false,0.276221,-0.481628,0.361145,0.749207,0.928115,-0.281987,-0.271244,-19.771037,-63.58777,12.549544
1783986147.2711,16:42:27.271,1,false,0.276076,-0.481567,0.361084,0.749329,0.904189,-0.299077,-0.280522,-19.722979,-63.629237,12.520805
1783986147.3025,16:42:27.302,2,false,0.276037,-0.481079,0.361511,0.749451,0.916884,-0.283452,-0.277104,-19.814311,-63.56188,12.659431
1783986147.3338,16:42:27.333,3,false,0.275976,-0.480835,0.361755,0.749512,0.928603,-0.283452,-0.277592,-19.821741,-63.62089,12.784196
1783986147.3652,16:42:27.365,4,false,0.276115,-0.480713,0.361938,0.749451,0.92372,-0.295171,-0.284428,-19.663936,-63.688953,12.731991
1783986147.3965,16:42:27.396,5,false,0.275929,-0.480347,0.362061,0.749695,0.912978,-0.297612,-0.277592,-19.671449,-63.75021,12.714915
1783986147.4278,16:42:27.427,6,false,0.275418,-0.480164,0.362061,0.75,0.931044,-0.305425,-0.282963,-19.603442,-63.506264,12.669638
1783986147.459,16:42:27.459,7,false,0.275575,-0.479797,0.362427,0.75,0.920302,-0.304936,-0.286381,-19.617005,-63.406343,12.733566
1783986147.4901,16:42:27.490,8,false,0.275632,-0.479675,0.362671,0.749939,0.922744,-0.285893,-0.291752,-19.599304,-63.361276,12.74624
1783986147.5213,16:42:27.521,9,false,0.275471,-0.479675,0.362793,0.749939,0.917861,-0.279545,-0.287358,-19.658142,-63.470254,12.638016
1783986147.5524,16:42:27.552,10,false,0.275351,-0.479553,0.362793,0.750061,0.92958,-0.289799,-0.285893,-19.636327,-63.493565,12.585475
1783986147.5835,16:42:27.583,11,false,0.275351,-0.479553,0.362793,0.750061,0.925185,-0.292729,-0.274662,-19.646602,-63.57436,12.627912
1783986147.6147,16:42:27.614,12,false,0.275621,-0.479309,0.363037,0.75,0.921279,-0.294682,-0.291264,-19.536218,-63.617169,12.770782
1783986147.646,16:42:27.646,13,false,0.275228,-0.479248,0.363037,0.750183,0.926162,-0.304448,-0.280522,-19.66118,-63.536065,12.719919
1783986147.6774,16:42:27.677,14,false,0.27523,-0.479065,0.363403,0.750122,0.911513,-0.292729,-0.279545,-19.624108,-63.717287,12.674142
1783986147.7087,16:42:27.708,15,false,0.275014,-0.479004,0.363647,0.750122,0.925185,-0.291264,-0.281498,-19.650558,-63.611218,12.573127
1783986147.74,16:42:27.740,16,false,0.274543,-0.479126,0.363464,0.750305,0.92372,-0.299077,-0.281987,-19.734178,-63.65034,12.392491
1783986147.7714,16:42:27.771,17,false,0.274316,-0.479065,0.363464,0.750427,0.911513,-0.297612,-0.279545,-19.70476,-63.580874,12.394411
1783986147.8025,16:42:27.802,18,false,0.273922,-0.479004,0.363464,0.75061,0.92079,-0.310796,-0.280522,-19.648376,-63.563215,12.366231
1783986147.8337,16:42:27.833,19,false,0.273775,-0.478943,0.363403,0.750732,0.928603,-0.296635,-0.27808,-19.52286,-63.57723,12.296007
1783986147.8648,16:42:27.864,20,false,0.273434,-0.478943,0.363281,0.750916,0.91249,-0.292241,-0.280034,-19.335128,-63.634705,12.232806
1783986147.8959,16:42:27.895,21,false,0.273353,-0.478943,0.363342,0.750916,0.931044,-0.287358,-0.282963,-19.255891,-63.731294,12.205833
1783986147.9273,16:42:27.927,22,false,0.273038,-0.478882,0.363281,0.751099,0.908583,-0.305913,-0.282963,-19.319163,-63.549055,11.972203
1783986147.9584,16:42:27.958,23,false,0.273003,-0.47876,0.363342,0.75116,0.921767,-0.289311,-0.281498,-19.391062,-63.699071,12.075967
1783986147.9896,16:42:27.989,24,false,0.272824,-0.479004,0.363281,0.751099,0.936904,-0.288334,-0.276616,-19.306232,-63.729408,12.064678
1783986148.0209,16:42:28.020,25,false,0.272615,-0.479126,0.363403,0.751038,0.902235,-0.308354,-0.271244,-19.17007,-63.846434,12.14424
1783986148.0522,16:42:28.052,26,false,0.272473,-0.479065,0.363464,0.751099,0.906142,-0.311772,-0.281987,-19.241923,-63.652681,12.245754
1783986148.0836,16:42:28.083,27,false,0.27208,-0.479004,0.363586,0.751221,0.918349,-0.303471,-0.282475,-19.097238,-63.568026,12.247394
1783986148.1149,16:42:28.114,28,false,0.27228,-0.478943,0.36377,0.751099,0.919814,-0.302495,-0.283452,-19.131514,-63.58156,12.338593
1783986148.1463,16:42:28.146,29,false,0.27279,-0.478943,0.363892,0.750854,0.914931,-0.297124,-0.281498,-19.042731,-63.623648,12.360856
1783986148.1776,16:42:28.177,30,false,0.272651,-0.479065,0.363708,0.750916,0.911513,-0.305425,-0.279057,-19.157227,-63.601712,12.410801
1783986148.2088,16:42:28.208,31,false,0.273248,-0.478821,0.363708,0.750854,0.912978,-0.299565,-0.277592,-19.155596,-63.537108,12.306213
1783986148.2399,16:42:28.239,0,false,0.273276,-0.479126,0.363159,0.750916,0.919326,-0.307378,-0.273198,-19.258805,-63.523826,12.361622
1783986148.271,16:42:28.271,1,false,0.273585,-0.479187,0.363098,0.750793,0.909071,-0.293217,-0.291264,-19.112431,-63.631503,12.381582
1783986148.3022,16:42:28.302,2,false,0.27379,-0.479492,0.362793,0.750671,0.915908,-0.281498,-0.275639,-19.249864,-63.548966,12.474316
1783986148.3333,16:42:28.333,3,false,0.274096,-0.47937,0.362976,0.750549,0.922255,-0.289799,-0.285893,-19.164201,-63.564406,12.468053
1783986148.3645,16:42:28.364,4,false,0.273689,-0.479553,0.362915,0.75061,0.92079,-0.281498,-0.275151,-19.146918,-63.53344,12.477371
1783986148.3958,16:42:28.395,5,false,0.273634,-0.479492,0.363037,0.75061,0.917372,-0.299565,-0.280522,-18.966872,-63.505571,12.455848
1783986148.4271,16:42:28.427,6,false,0.273466,-0.479492,0.363037,0.750671,0.919326,-0.284916,-0.271244,-19.118861,-63.480489,12.586017
1783986148.4585,16:42:28.458,7,false,0.273743,-0.479248,0.363403,0.750549,0.92079,-0.302983,-0.281987,-19.195836,-63.502777,12.643353
1783986148.4898,16:42:28.489,8,false,0.273763,-0.479187,0.363342,0.75061,0.915419,-0.287358,-0.288334,-19.205298,-63.507882,12.635141
1783986148.5212,16:42:28.521,9,false,0.27348,-0.479065,0.363464,0.750732,0.92958,-0.302495,-0.281987,-19.183906,-63.512476,12.597842
1783986148.5525,16:42:28.552,10,false,0.273069,-0.479065,0.363647,0.750793,0.922744,-0.296635,-0.28394,-19.164653,-63.441842,12.639042
1783986148.5836,16:42:28.583,11,false,0.273008,-0.479004,0.363647,0.750854,0.917861,-0.300053,-0.282475,-19.102464,-63.45304,12.601353
1783986148.6148,16:42:28.614,12,false,0.27257,-0.479065,0.36377,0.750916,0.921767,-0.31519,-0.27808,-19.046494,-63.38835,12.567432
1783986148.6459,16:42:28.645,13,false,0.272535,-0.478943,0.363831,0.750977,0.917372,-0.309819,-0.280522,-19.085844,-63.49462,12.626627
1783986148.6771,16:42:28.677,14,false,0.272531,-0.47876,0.364075,0.750977,0.934951,-0.292729,-0.277104,-19.076398,-63.470633,12.739718
1783986148.7082,16:42:28.708,15,false,0.271662,-0.478821,0.364014,0.751282,0.910536,-0.313725,-0.28101,-18.993127,-63.404183,12.721869
1783986148.7395,16:42:28.739,16,false,0.270863,-0.478699,0.364014,0.751648,0.921767,-0.325933,-0.281987,-18.933136,-63.434101,12.660943
1783986148.7709,16:42:28.770,17,false,0.270185,-0.478699,0.364014,0.751892,0.919814,-0.310307,-0.28394,-18.983822,-63.461028,12.60611
1783986148.8022,16:42:28.802,18,false,0.270133,-0.478821,0.363892,0.751892,0.921279,-0.297612,-0.269291,-18.999532,-63.455354,12.661437
1783986148.8336,16:42:28.833,19,false,0.270389,-0.479248,0.36377,0.751587,0.932021,-0.287846,-0.273198,-19.028624,-63.435293,12.621508
1783986148.8649,16:42:28.864,20,false,0.269954,-0.479675,0.363403,0.751648,0.90956,-0.292729,-0.278569,-18.860407,-63.417239,12.585572
1783986148.8962,16:42:28.896,21,false,0.26932,-0.479919,0.362793,0.752014,0.914931,-0.299077,-0.262943,-18.963227,-63.520621,12.538276
1783986148.9274,16:42:28.927,22,false,0.269086,-0.480225,0.362183,0.752197,0.913466,-0.309331,-0.290288,-18.99595,-63.59871,12.361125
1783986148.9585,16:42:28.958,23,false,0.269237,-0.480225,0.361816,0.752319,0.913954,-0.304936,-0.283452,-18.935678,-63.504499,12.336274
1783986148.9897,16:42:28.989,24,false,0.270026,-0.47998,0.362061,0.752075,0.92372,-0.277104,-0.290288,-18.971155,-63.479524,12.328862
1783986149.0208,16:42:29.020,25,false,0.270257,-0.480042,0.362061,0.751953,0.919326,-0.274174,-0.291264,-19.062901,-63.472,12.382006
1783986149.0519,16:42:29.051,26,false,0.270284,-0.47998,0.362122,0.751953,0.90956,-0.297612,-0.277104,-19.025841,-63.569906,12.459743
1783986149.0831,16:42:29.083,27,false,0.269944,-0.47998,0.362122,0.752075,0.911513,-0.295171,-0.281987,-19.037349,-63.628113,12.604476
1783986149.1142,16:42:29.114,28,false,0.269359,-0.480164,0.362061,0.752197,0.927138,-0.301518,-0.279057,-18.928075,-63.560869,12.659967
1783986149.1456,16:42:29.145,29,false,0.268165,-0.480591,0.362,0.75238,0.910048,-0.314702,-0.26685,-19.054036,-63.61998,12.605231
1783986149.1769,16:42:29.176,30,false,0.268075,-0.480652,0.362366,0.752197,0.910048,-0.310307,-0.284428,-19.122539,-63.718042,12.6756
1783986149.2082,16:42:29.208,31,false,0.268017,-0.480652,0.362915,0.751953,0.925185,-0.297612,-0.271733,-19.064562,-63.746482,12.783793
1783986149.2396,16:42:29.239,0,false,0.26789,-0.480591,0.363342,0.751831,0.916396,-0.298589,-0.274174,-19.072197,-63.637493,12.746583
1783986149.2709,16:42:29.270,1,false,0.267662,-0.48053,0.363464,0.751892,0.898329,-0.308354,-0.264897,-19.153838,-63.763711,12.713093
1783986149.3023,16:42:29.302,2,false,0.267447,-0.480225,0.363647,0.752075,0.921279,-0.306889,-0.288334,-19.212362,-63.787584,12.638091
1783986149.3334,16:42:29.333,3,false,0.2675,-0.480103,0.36377,0.752075,0.934463,-0.305425,-0.26978,-19.115494,-63.764208,12.779943
1783986149.3645,16:42:29.364,4,false,0.266355,-0.480591,0.363586,0.752258,0.922744,-0.302983,-0.281987,-19.147944,-63.728216,12.71321
1783986149.3957,16:42:29.395,5,false,0.266152,-0.480469,0.36377,0.752319,0.925185,-0.318608,-0.276616,-19.10238,-63.725731,12.907366
1783986149.4268,16:42:29.426,6,false,0.266339,-0.480042,0.364197,0.752319,0.913466,-0.312749,-0.289311,-19.016511,-63.633771,12.992382
1783986149.458,16:42:29.458,7,false,0.265726,-0.480042,0.364014,0.752625,0.917372,-0.311284,-0.285405,-19.10372,-63.7155,12.904405
1783986149.4891,16:42:29.489,8,false,0.265279,-0.480042,0.363708,0.75293,0.927138,-0.313237,-0.278569,-18.972856,-63.804009,12.870087
1783986149.5203,16:42:29.520,9,false,0.264632,-0.480042,0.362915,0.75354,0.910048,-0.329839,-0.282475,-18.780308,-63.823853,12.809294
1783986149.5516,16:42:29.551,10,false,0.264538,-0.480164,0.362061,0.753906,0.922255,-0.316167,-0.279057,-18.906092,-63.766942,12.784487
1783986149.5829,16:42:29.582,11,false,0.264722,-0.48053,0.361694,0.753784,0.92079,-0.307378,-0.276127,-18.839851,-63.850308,12.732253
1783986149.6143,16:42:29.614,12,false,0.264842,-0.481201,0.36084,0.753723,0.904189,-0.297612,-0.26685,-18.825096,-63.910383,12.849735
1783986149.6456,16:42:29.645,13,false,0.265423,-0.481384,0.360168,0.753723,0.908583,-0.300053,-0.260014,-18.766955,-63.874727,12.716208
1783986149.677,16:42:29.677,14,false,0.267556,-0.480896,0.359497,0.753601,0.910536,-0.298589,-0.278569,-18.834259,-63.752914,12.730617
1783986149.7081,16:42:29.708,15,false,0.26833,-0.480652,0.359375,0.75354,0.92958,-0.281498,-0.287846,-18.775202,-63.807774,12.609001
1783986149.7392,16:42:29.739,16,false,0.270601,-0.479797,0.35907,0.753418,0.917861,-0.282963,-0.302495,-18.79682,-63.887056,12.574316
1783986149.7704,16:42:29.770,17,false,0.271868,-0.479309,0.358765,0.753418,0.927626,-0.270756,-0.2981,-18.935906,-63.943456,12.483284
1783986149.8015,16:42:29.801,18,false,0.273012,-0.479187,0.357544,0.753662,0.909071,-0.280034,-0.301518,-18.956407,-63.844678,12.550894
1783986149.8327,16:42:29.832,19,false,0.274057,-0.479187,0.356873,0.753601,0.918349,-0.287358,-0.296147,-18.855228,-63.72587,12.536973
1783986149.8638,16:42:29.863,20,false,0.274999,-0.479248,0.356323,0.753479,0.928603,-0.288334,-0.304936,-19.018381,-63.633896,12.58426
1783986149.8949,16:42:29.894,21,false,0.276215,-0.479492,0.355957,0.753052,0.920302,-0.287846,-0.300542,-19.030635,-63.566074,12.67168
1783986149.9263,16:42:29.926,22,false,0.27697,-0.479858,0.355652,0.752686,0.928603,-0.265873,-0.300542,-19.191201,-63.505034,12.570911
1783986149.9576,16:42:29.957,23,false,0.278276,-0.480286,0.355347,0.752075,0.922255,-0.274662,-0.28394,-19.171219,-63.435144,12.614805
1783986149.989,16:42:29.989,24,false,0.279154,-0.48053,0.355103,0.751709,0.936904,-0.273198,-0.311284,-19.168189,-63.387197,12.564585
1783986150.0203,16:42:30.020,25,false,0.279767,-0.481262,0.354919,0.751099,0.942275,-0.264897,-0.30103,-19.180416,-63.40386,12.429665
1783986150.0514,16:42:30.051,26,false,0.280165,-0.482178,0.355042,0.750305,0.924208,-0.276616,-0.305913,-19.101696,-63.403902,12.502636
1783986150.0826,16:42:30.082,27,false,0.280891,-0.4823,0.355591,0.749695,0.935927,-0.26392,-0.303471,-19.105619,-63.224495,12.493542
1783986150.1137,16:42:30.113,28,false,0.281015,-0.482666,0.355896,0.749268,0.917861,-0.254643,-0.293706,-19.183918,-63.347151,12.485356
1783986150.1449,16:42:30.144,29,false,0.28121,-0.483337,0.356628,0.748413,0.912001,-0.26392,-0.294194,-19.284294,-63.352865,12.552759
1783986150.176,16:42:30.176,30,false,0.280396,-0.484192,0.35675,0.748108,0.927626,-0.271244,-0.273198,-19.329772,-63.372961,12.628375
1783986150.2071,16:42:30.207,31,false,0.279549,-0.485107,0.356812,0.747803,0.924208,-0.288823,-0.26685,-19.415563,-63.406001,12.681475
1783986150.2383,16:42:30.238,0,false,0.279344,-0.485229,0.356934,0.747742,0.925673,-0.309819,-0.279057,-19.23856,-63.435738,12.654497
1783986150.2696,16:42:30.269,1,false,0.279255,-0.485535,0.357483,0.747314,0.912978,-0.294194,-0.279545,-19.333473,-63.582131,12.809662
1783986150.301,16:42:30.301,2,false,0.279355,-0.485718,0.357666,0.74707,0.917861,-0.286381,-0.277104,-19.344125,-63.489577,12.844634
1783986150.3323,16:42:30.332,3,false,0.279927,-0.485596,0.358276,0.746643,0.916396,-0.282475,-0.274662,-19.428481,-63.555818,13.055555
1783986150.3636,16:42:30.363,4,false,0.280489,-0.485474,0.358765,0.746277,0.930556,-0.282963,-0.27808,-19.324956,-63.495803,13.095845
1783986150.395,16:42:30.395,5,false,0.280609,-0.485596,0.358887,0.746094,0.933486,-0.281498,-0.268803,-19.411229,-63.44179,13.072291
1783986150.4263,16:42:30.426,6,false,0.280661,-0.48584,0.358643,0.746033,0.934463,-0.269291,-0.277104,-19.47392,-63.348317,13.021184
1783986150.4577,16:42:30.457,7,false,0.280923,-0.485962,0.358398,0.745972,0.930556,-0.276616,-0.269291,-19.470528,-63.428683,12.930327
1783986150.4888,16:42:30.488,8,false,0.280862,-0.486267,0.358032,0.745972,0.918837,-0.280034,-0.268803,-19.497382,-63.486059,12.938279
1783986150.5199,16:42:30.519,9,false,0.281349,-0.486633,0.357788,0.745667,0.930068,-0.279545,-0.267338,-19.641182,-63.477882,12.960389
1783986150.5511,16:42:30.551,10,false,0.281834,-0.486816,0.357666,0.745422,0.921279,-0.287358,-0.256596,-19.53134,-63.380799,12.890565
1783986150.5822,16:42:30.582,11,false,0.283352,-0.487183,0.357239,0.744812,0.92665,-0.279057,-0.269291,-19.582021,-63.442964,12.857631
1783986150.6136,16:42:30.613,12,false,0.284064,-0.487183,0.357056,0.744629,0.912978,-0.274662,-0.265385,-19.463141,-63.289558,12.962575
1783986150.6447,16:42:30.644,13,false,0.286213,-0.487244,0.356018,0.744263,0.915419,-0.264897,-0.265385,-19.505688,-63.151492,12.952348
1783986150.676,16:42:30.676,14,false,0.288804,-0.486755,0.355103,0.744019,0.936416,-0.265873,-0.275639,-19.633703,-63.116956,13.092682
1783986150.7074,16:42:30.707,15,false,0.290557,-0.486023,0.354675,0.744019,0.932021,-0.258061,-0.287358,-19.614332,-63.07092,13.099352
1783986150.7387,16:42:30.738,16,false,0.292696,-0.485474,0.354309,0.743713,0.936904,-0.252201,-0.288823,-19.701575,-63.089303,13.16517
1783986150.7701,16:42:30.770,17,false,0.293436,-0.485352,0.354248,0.74353,0.942275,-0.260014,-0.290776,-19.854863,-62.986217,13.04496
1783986150.8014,16:42:30.801,18,false,0.295499,-0.485168,0.354065,0.74292,0.939834,-0.26392,-0.294194,-19.888145,-62.983163,13.161079
1783986150.8328,16:42:30.832,19,false,0.296928,-0.485413,0.353943,0.742249,0.942275,-0.253666,-0.288823,-19.903146,-62.890691,13.101094
1783986150.8639,16:42:30.863,20,false,0.29956,-0.486206,0.353577,0.740845,0.92665,-0.235599,-0.283452,-19.991415,-62.882235,13.047107
1783986150.895,16:42:30.895,21,false,0.300925,-0.486877,0.353027,0.740112,0.942763,-0.238529,-0.275639,-20.130673,-62.859671,12.908796
1783986150.9262,16:42:30.926,22,false,0.302452,-0.487305,0.352539,0.739441,0.924208,-0.235599,-0.281498,-20.136374,-62.869271,12.829178
1783986150.9573,16:42:30.957,23,false,0.304729,-0.48761,0.351563,0.73877,0.947158,-0.221439,-0.287846,-20.111598,-62.818096,12.71266
1783986150.9885,16:42:30.988,24,false,0.306483,-0.487976,0.351196,0.737976,0.949599,-0.210208,-0.285893,-20.164068,-62.772038,12.727424
1783986151.0196,16:42:31.019,25,false,0.307654,-0.488464,0.350647,0.737427,0.932998,-0.213138,-0.284428,-20.271107,-62.625909,12.57622
1783986151.0509,16:42:31.050,26,false,0.308965,-0.489136,0.350098,0.736694,0.939345,-0.225345,-0.287846,-20.32258,-62.539255,12.619582
1783986151.0823,16:42:31.082,27,false,0.309549,-0.489685,0.350098,0.736084,0.937392,-0.228275,-0.282475,-20.368906,-62.386497,12.613746
1783986151.1136,16:42:31.113,28,false,0.311161,-0.490417,0.350464,0.734741,0.948135,-0.239994,-0.288823,-20.455461,-62.398553,12.683264
1783986151.145,16:42:31.145,29,false,0.311407,-0.490723,0.350586,0.734375,0.940322,-0.23267,-0.280522,-20.712806,-62.364542,12.641152
1783986151.1763,16:42:31.176,30,false,0.312286,-0.492249,0.35022,0.733154,0.939834,-0.224857,-0.272221,-20.735064,-62.244209,12.767744
1783986151.2076,16:42:31.207,31,false,0.312892,-0.493347,0.349792,0.732361,0.950576,-0.24097,-0.276616,-20.740141,-62.195724,13.001308
1783986151.2388,16:42:31.238,0,false,0.313731,-0.494995,0.348755,0.731384,0.938857,-0.215579,-0.265873,-20.804526,-62.062365,13.091884
1783986151.2699,16:42:31.269,1,false,0.31441,-0.495972,0.347778,0.730896,0.94374,-0.213138,-0.281498,-20.862473,-61.822712,13.068726
1783986151.3011,16:42:31.301,2,false,0.3153,-0.496643,0.347168,0.730347,0.94667,-0.21265,-0.28394,-20.944533,-61.831331,13.077792
1783986151.3322,16:42:31.332,3,false,0.316021,-0.497559,0.346741,0.729614,0.947646,-0.216556,-0.270268,-21.003433,-61.854042,12.996228
1783986151.3633,16:42:31.363,4,false,0.316704,-0.497925,0.346619,0.729126,0.946181,-0.200931,-0.280034,-21.116258,-61.754851,13.11722
1783986151.3945,16:42:31.394,5,false,0.317754,-0.498413,0.346497,0.728394,0.943252,-0.199466,-0.273686,-21.172939,-61.695487,13.091528
1783986151.4258,16:42:31.425,6,false,0.318782,-0.498474,0.346619,0.727844,0.943252,-0.201907,-0.262943,-21.25386,-61.776644,13.08336
1783986151.4572,16:42:31.457,7,false,0.319288,-0.499023,0.34613,0.727478,0.964736,-0.178958,-0.282475,-21.37155,-61.640332,13.061054
1783986151.4885,16:42:31.488,8,false,0.319863,-0.499878,0.34552,0.726929,0.954482,-0.179446,-0.272221,-21.522333,-61.59242,13.100794
1783986151.5198,16:42:31.519,9,false,0.319786,-0.500488,0.345093,0.726746,0.94374,-0.174075,-0.261479,-21.523453,-61.459576,13.01693
1783986151.5512,16:42:31.551,10,false,0.319437,-0.501099,0.344788,0.726624,0.96083,-0.198001,-0.262455,-21.659045,-61.399832,13.105944
1783986151.5825,16:42:31.582,11,false,0.318926,-0.501587,0.344421,0.726685,0.945693,-0.205325,-0.267826,-21.766125,-61.435785,13.171103
1783986151.6137,16:42:31.613,12,false,0.318082,-0.502136,0.343628,0.727051,0.942763,-0.202396,-0.26978,-21.832588,-61.37842,13.2447
1783986151.6448,16:42:31.644,13,false,0.317124,-0.502197,0.343262,0.7276,0.951064,-0.218021,-0.265873,-21.787729,-61.401561,13.236168
1783986151.6759,16:42:31.675,14,false,0.316682,-0.502075,0.343201,0.727905,0.950088,-0.202884,-0.274174,-21.702494,-61.452295,13.198582
1783986151.7071,16:42:31.707,15,false,0.315343,-0.501892,0.343018,0.728699,0.94374,-0.224857,-0.26099,-21.730459,-61.258694,13.284385
1783986151.7382,16:42:31.738,16,false,0.3142,-0.502014,0.34259,0.729309,0.953017,-0.211185,-0.265873,-21.800489,-61.144269,13.167207
1783986151.7694,16:42:31.769,17,false,0.313336,-0.501526,0.342407,0.730103,0.954971,-0.20972,-0.269291,-21.773794,-61.086148,13.106609
1783986151.8007,16:42:31.800,18,false,0.313361,-0.500977,0.342407,0.730469,0.940322,-0.213626,-0.268803,-21.764721,-61.018885,13.081979
1783986151.832,16:42:31.832,19,false,0.313581,-0.500488,0.342529,0.730652,0.938369,-0.202396,-0.276616,-21.906095,-61.033118,13.299073
1783986151.8634,16:42:31.863,20,false,0.313778,-0.500061,0.342712,0.730774,0.980362,-0.196536,-0.276127,-21.883792,-61.01602,13.255196
1783986151.8947,16:42:31.894,21,false,0.313095,-0.500305,0.34259,0.730957,0.972061,-0.196536,-0.273198,-21.818858,-60.970723,13.155891
1783986151.9261,16:42:31.926,22,false,0.31233,-0.50061,0.342712,0.731018,0.958877,-0.213626,-0.265873,-21.80528,-60.885095,13.126332
1783986151.9574,16:42:31.957,23,false,0.31175,-0.500916,0.343445,0.730713,0.950088,-0.217044,-0.271733,-21.822966,-60.748215,13.114683
1783986151.9885,16:42:31.988,24,false,0.311789,-0.501038,0.34375,0.730469,0.94081,-0.197513,-0.267826,-21.764115,-60.84933,13.178968
1783986152.0197,16:42:32.019,25,false,0.312016,-0.501404,0.344177,0.729919,0.963272,-0.205325,-0.26978,-21.875641,-60.73098,13.206917
1783986152.0508,16:42:32.050,26,false,0.312144,-0.501465,0.34436,0.729736,0.948623,-0.200443,-0.275639,-21.84143,-60.788957,13.261979
1783986152.082,16:42:32.082,27,false,0.312488,-0.501709,0.344727,0.729248,0.963272,-0.193118,-0.26978,-22.064856,-60.721505,13.221811
1783986152.1131,16:42:32.113,28,false,0.312586,-0.50238,0.345337,0.728455,0.958389,-0.194095,-0.26099,-22.056585,-60.675753,13.275384
1783986152.1445,16:42:32.144,29,false,0.312498,-0.502686,0.34613,0.727905,0.9579,-0.195071,-0.251225,-22.019233,-60.76916,13.189014
1783986152.1758,16:42:32.175,30,false,0.312244,-0.502869,0.346863,0.727539,0.951064,-0.215579,-0.264897,-21.970663,-60.718642,13.126235
1783986152.2071,16:42:32.207,31,false,0.311979,-0.502991,0.346924,0.727539,0.950088,-0.215579,-0.267338,-21.837227,-60.807761,13.024873
1783986152.2385,16:42:32.238,0,false,0.31171,-0.503296,0.347107,0.727356,0.957412,-0.203861,-0.264897,-21.732088,-60.723475,13.02337
1783986152.2698,16:42:32.269,1,false,0.310989,-0.503784,0.347046,0.727356,0.954482,-0.217533,-0.254154,-21.846817,-60.737341,13.186509
1783986152.3012,16:42:32.301,2,false,0.310882,-0.503479,0.347839,0.727234,0.933486,-0.220462,-0.24976,-21.830443,-60.74982,13.288473
1783986152.3325,16:42:32.332,3,false,0.311391,-0.502869,0.348267,0.727234,0.94374,-0.213626,-0.261479,-21.890475,-60.91059,13.350333
1783986152.3636,16:42:32.363,4,false,0.312062,-0.502502,0.34845,0.727112,0.957412,-0.217044,-0.255131,-21.914596,-60.980514,13.256469
1783986152.3948,16:42:32.394,5,false,0.3127,-0.502197,0.348572,0.72699,0.94667,-0.213138,-0.254154,-21.816674,-60.923814,13.396298
1783986152.4259,16:42:32.425,6,false,0.313289,-0.502014,0.348816,0.726746,0.947646,-0.196536,-0.261967,-21.773406,-61.067185,13.372607
1783986152.4571,16:42:32.457,7,false,0.313349,-0.501892,0.348938,0.726746,0.933974,-0.189212,-0.259037,-22.018588,-61.091541,13.366238
1783986152.4882,16:42:32.488,8,false,0.313403,-0.50177,0.348938,0.726807,0.949111,-0.205814,-0.252689,-21.985036,-61.218139,13.270783
1783986152.5193,16:42:32.519,9,false,0.313581,-0.501404,0.349304,0.726807,0.956435,-0.213626,-0.272221,-21.999701,-61.257308,13.334412
1783986152.5507,16:42:32.550,10,false,0.313339,-0.501038,0.349792,0.726929,0.949111,-0.212161,-0.266361,-22.042807,-61.322467,13.391678
1783986152.582,16:42:32.582,11,false,0.313164,-0.500977,0.350037,0.726929,0.951553,-0.220462,-0.251713,-22.036741,-61.216619,13.353494
1783986152.6134,16:42:32.613,12,false,0.312514,-0.500732,0.350586,0.727112,0.951064,-0.217533,-0.247807,-22.031281,-61.226032,13.24436
1783986152.6447,16:42:32.644,13,false,0.312225,-0.50061,0.350891,0.727173,0.953017,-0.22388,-0.254154,-21.99646,-61.369088,13.340539
1783986152.676,16:42:32.676,14,false,0.311939,-0.500427,0.350647,0.727539,0.946181,-0.216068,-0.258061,-22.024937,-61.482885,13.337377
1783986152.7074,16:42:32.707,15,false,0.311521,-0.500244,0.350647,0.727844,0.951553,-0.220951,-0.265385,-21.945889,-61.435764,13.4093
1783986152.7385,16:42:32.738,16,false,0.311162,-0.500244,0.350586,0.728027,0.953017,-0.227787,-0.262943,-22.024284,-61.213909,13.399262
1783986152.7699,16:42:32.769,17,false,0.311171,-0.500366,0.350403,0.728027,0.939345,-0.208255,-0.254643,-21.990162,-61.283408,13.345366
1783986152.801,16:42:32.801,18,false,0.311135,-0.500549,0.349792,0.72821,0.950088,-0.207279,-0.259037,-21.959453,-61.271189,13.251999
1783986152.8321,16:42:32.832,19,false,0.311344,-0.500671,0.349304,0.728271,0.947646,-0.217044,-0.264408,-21.931815,-61.305052,13.272644
1783986152.8633,16:42:32.863,20,false,0.31163,-0.500916,0.348572,0.728333,0.938369,-0.203372,-0.252201,-21.877033,-61.215899,13.291226
1783986152.8944,16:42:32.894,21,false,0.311506,-0.501282,0.3479,0.728455,0.955947,-0.192142,-0.254643,-21.902498,-61.135661,13.173364
1783986152.9258,16:42:32.925,22,false,0.31162,-0.501465,0.347534,0.728455,0.949111,-0.193118,-0.263432,-21.835694,-61.15317,13.082243
1783986152.9571,16:42:32.957,23,false,0.311515,-0.501526,0.347412,0.728516,0.942275,-0.188235,-0.259525,-21.640985,-61.049297,13.089957
1783986152.9884,16:42:32.988,24,false,0.311417,-0.501587,0.347412,0.728516,0.953017,-0.197024,-0.265385,-21.600332,-60.970766,13.156714
1783986153.0198,16:42:33.019,25,false,0.310919,-0.501465,0.347778,0.728638,0.942763,-0.21265,-0.254643,-21.503929,-61.034672,13.082212
1783986153.0509,16:42:33.050,26,false,0.310481,-0.501343,0.347961,0.728821,0.948135,-0.218997,-0.256596,-21.641474,-61.092187,13.060021
1783986153.0821,16:42:33.082,27,false,0.309545,-0.501343,0.3479,0.729248,0.953994,-0.204349,-0.253178,-21.540957,-61.143951,12.995188
1783986153.1134,16:42:33.113,28,false,0.309302,-0.501404,0.3479,0.729309,0.961318,-0.21265,-0.259037,-21.375722,-61.145677,13.041515
1783986153.1445,16:42:33.144,29,false,0.309399,-0.501221,0.348206,0.729248,0.955459,-0.207767,-0.253178,-21.541041,-61.162185,13.113117
1783986153.1757,16:42:33.175,30,false,0.309021,-0.501404,0.348022,0.72937,0.955947,-0.221927,-0.254154,-21.585152,-61.177041,12.923343
1783986153.2068,16:42:33.206,31,false,0.308818,-0.501343,0.347778,0.729614,0.942275,-0.21265,-0.262943,-21.57999,-61.085735,12.961901
1783986153.238,16:42:33.238,0,false,0.30879,-0.501221,0.347595,0.729797,0.94374,-0.201907,-0.272709,-21.635159,-61.212913,12.951741
1783986153.2691,16:42:33.269,1,false,0.308753,-0.500977,0.347595,0.72998,0.945693,-0.206302,-0.259525,-21.610043,-61.252605,13.002413
1783986153.3004,16:42:33.300,2,false,0.308716,-0.500732,0.347595,0.730164,0.941299,-0.207767,-0.272221,-21.602392,-61.333189,13.033063
1783986153.3318,16:42:33.331,3,false,0.308716,-0.500427,0.347778,0.730286,0.949599,-0.213626,-0.273686,-21.640367,-61.375806,13.10551
1783986153.3631,16:42:33.363,4,false,0.308502,-0.500122,0.348022,0.730469,0.92958,-0.224369,-0.270756,-21.599776,-61.369301,13.230528
1783986153.3945,16:42:33.394,5,false,0.307749,-0.500183,0.347961,0.730774,0.954482,-0.208743,-0.268803,-21.712782,-61.288676,13.313136
1783986153.4258,16:42:33.425,6,false,0.307213,-0.500427,0.348083,0.730774,0.948135,-0.215091,-0.255619,-21.635042,-61.320791,13.327668
1783986153.4569,16:42:33.456,7,false,0.306363,-0.500549,0.348145,0.731018,0.954482,-0.22388,-0.268315,-21.535168,-61.424464,13.31084
1783986153.4881,16:42:33.488,8,false,0.306278,-0.500427,0.348267,0.731079,0.953994,-0.228275,-0.273686,-21.475189,-61.368231,13.370463
1783986153.5192,16:42:33.519,9,false,0.306108,-0.500183,0.348511,0.731201,0.956924,-0.234134,-0.267826,-21.466069,-61.347529,13.349355
1783986153.5504,16:42:33.550,10,false,0.305945,-0.500244,0.348694,0.73114,0.938369,-0.224369,-0.267826,-21.547585,-61.313944,13.42008
1783986153.5815,16:42:33.581,11,false,0.306077,-0.500427,0.348572,0.731018,0.945693,-0.207279,-0.261967,-21.635902,-61.223901,13.46878
1783986153.6127,16:42:33.612,12,false,0.30587,-0.500549,0.34845,0.731079,0.941787,-0.204349,-0.264408,-21.625665,-61.307355,13.348117
1783986153.6438,16:42:33.643,13,false,0.30584,-0.50061,0.348389,0.731079,0.947158,-0.200931,-0.26099,-21.586544,-61.427325,13.314289
1783986153.6751,16:42:33.675,14,false,0.305964,-0.500793,0.348145,0.731018,0.965713,-0.207279,-0.245853,-21.521428,-61.370806,13.224029
1783986153.7065,16:42:33.706,15,false,0.306077,-0.500732,0.348389,0.730896,0.952041,-0.217044,-0.254154,-21.657223,-61.424616,13.322241
1783986153.7378,16:42:33.737,16,false,0.305992,-0.50061,0.348511,0.730957,0.953994,-0.202884,-0.26099,-21.839254,-61.458091,13.395678
1783986153.7692,16:42:33.769,17,false,0.305844,-0.500488,0.348816,0.730957,0.951064,-0.219974,-0.255131,-21.928312,-61.637757,13.282325
1783986153.8005,16:42:33.800,18,false,0.305589,-0.500427,0.348999,0.731018,0.952529,-0.223392,-0.265873,-21.948649,-61.739641,13.270031
1783986153.8318,16:42:33.831,19,false,0.304842,-0.500793,0.348999,0.731079,0.959365,-0.233158,-0.256596,-21.922091,-61.681798,13.229058
1783986153.8632,16:42:33.863,20,false,0.30425,-0.501099,0.348694,0.731262,0.942275,-0.227787,-0.259525,-21.793512,-61.779278,13.192183
1783986153.8943,16:42:33.894,21,false,0.304027,-0.501404,0.34845,0.731262,0.948135,-0.216556,-0.252689,-21.887145,-61.852056,13.129087
1783986153.9255,16:42:33.925,22,false,0.303913,-0.501892,0.347717,0.731323,0.932998,-0.222904,-0.253666,-21.83683,-61.902602,13.02744
1783986153.9566,16:42:33.956,23,false,0.304007,-0.502075,0.346985,0.731506,0.952041,-0.220462,-0.261479,-21.851362,-61.708832,13.02568
1783986153.9877,16:42:33.987,24,false,0.304376,-0.502014,0.345459,0.732117,0.947158,-0.211185,-0.255619,-21.714902,-61.788655,13.098865
1783986154.0189,16:42:34.018,25,false,0.30453,-0.501953,0.345154,0.732239,0.9579,-0.210208,-0.267338,-21.741626,-61.740864,13.19464
1783986154.05,16:42:34.050,26,false,0.30478,-0.50177,0.344421,0.732605,0.952041,-0.211185,-0.271244,-21.81054,-61.80253,13.221022
1783986154.0814,16:42:34.081,27,false,0.305001,-0.501892,0.344177,0.732544,0.94374,-0.214115,-0.266361,-21.678162,-61.723444,13.199904
1783986154.1127,16:42:34.112,28,false,0.30565,-0.50177,0.344299,0.7323,0.94374,-0.217044,-0.26392,-21.723514,-61.637313,13.046313
1783986154.144,16:42:34.144,29,false,0.305518,-0.501892,0.344238,0.7323,0.967178,-0.20679,-0.265873,-21.71947,-61.589703,13.027712
1783986154.1754,16:42:34.175,30,false,0.305636,-0.501831,0.344482,0.732178,0.967178,-0.213626,-0.26392,-21.820507,-61.561808,13.025925
1783986154.2065,16:42:34.206,31,false,0.305638,-0.501526,0.344666,0.7323,0.946181,-0.215091,-0.270268,-21.791809,-61.506794,13.054224
1783986154.2377,16:42:34.237,0,false,0.305453,-0.501282,0.344666,0.732544,0.947646,-0.214603,-0.257572,-21.780935,-61.397467,12.915202
1783986154.2688,16:42:34.268,1,false,0.305516,-0.50116,0.344788,0.732544,0.949599,-0.214603,-0.265385,-21.681426,-61.314026,13.05925
1783986154.2999,16:42:34.299,2,false,0.305676,-0.501099,0.344604,0.732605,0.937392,-0.213138,-0.259037,-21.591867,-61.209021,12.97954
1783986154.3311,16:42:34.331,3,false,0.306506,-0.500549,0.344666,0.732605,0.941299,-0.213138,-0.26978,-21.675757,-61.129471,13.072293
1783986154.3622,16:42:34.362,4,false,0.307982,-0.49939,0.345032,0.732605,0.950088,-0.220462,-0.285405,-21.811073,-61.117691,12.961371
1783986154.3934,16:42:34.393,5,false,0.308417,-0.499084,0.345215,0.732544,0.950088,-0.203372,-0.271733,-21.917903,-61.241674,13.055941
1783986154.4245,16:42:34.424,6,false,0.310088,-0.498352,0.346069,0.731934,0.938369,-0.200931,-0.26685,-21.939281,-61.353259,13.066285
1783986154.4558,16:42:34.455,7,false,0.311452,-0.497742,0.346497,0.731567,0.951553,-0.210208,-0.273198,-21.764122,-61.304146,13.045687
1783986154.4872,16:42:34.487,8,false,0.31224,-0.497437,0.346741,0.731323,0.946181,-0.199954,-0.268803,-21.65134,-61.215084,12.95238
1783986154.5185,16:42:34.518,9,false,0.313442,-0.496887,0.347473,0.730835,0.94374,-0.203372,-0.280522,-21.639559,-61.269512,12.988034
1783986154.5499,16:42:34.549,10,false,0.313859,-0.496765,0.347656,0.730652,0.955947,-0.191653,-0.26099,-21.83831,-61.378312,12.930399
1783986154.581,16:42:34.581,11,false,0.314458,-0.496399,0.348022,0.730469,0.943252,-0.200443,-0.26392,-21.927463,-61.446325,12.893482
1783986154.6121,16:42:34.612,12,false,0.314872,-0.496094,0.348083,0.730469,0.94374,-0.205814,-0.276616,-21.962839,-61.477629,12.905118
1783986154.6433,16:42:34.643,13,false,0.315372,-0.495544,0.3479,0.730713,0.943252,-0.20972,-0.287846,-22.069447,-61.386172,12.990359
1783986154.6744,16:42:34.674,14,false,0.315597,-0.495178,0.347961,0.730835,0.958389,-0.208255,-0.282963,-22.060717,-61.303861,12.947446
1783986154.7056,16:42:34.705,15,false,0.316043,-0.494812,0.348206,0.730774,0.953994,-0.202396,-0.287358,-22.067814,-61.409227,12.89387
1783986154.7367,16:42:34.736,16,false,0.316241,-0.49469,0.348328,0.730713,0.946181,-0.201907,-0.269291,-21.95457,-61.384425,12.995191
1783986154.7679,16:42:34.767,17,false,0.316664,-0.494385,0.348633,0.730591,0.943252,-0.196048,-0.280034,-21.92742,-61.511642,13.041517
1783986154.799,16:42:34.799,18,false,0.316884,-0.494385,0.348816,0.730408,0.947158,-0.200931,-0.272221,-21.873077,-61.626138,13.053304
1783986154.8303,16:42:34.830,19,false,0.31694,-0.494263,0.348938,0.730408,0.932998,-0.213626,-0.277592,-21.958754,-61.594599,12.974188
1783986154.8617,16:42:34.861,20,false,0.316996,-0.494141,0.34906,0.730408,0.944228,-0.197024,-0.270268,-22.035862,-61.640983,12.977754
1783986154.893,16:42:34.893,21,false,0.31595,-0.494446,0.348938,0.730713,0.932998,-0.219974,-0.270756,-21.925814,-61.488329,12.921147
1783986154.9244,16:42:34.924,22,false,0.315819,-0.494263,0.34906,0.730835,0.942275,-0.210697,-0.26685,-21.946401,-61.500479,12.974878
1783986154.9555,16:42:34.955,23,false,0.315512,-0.493713,0.349731,0.731018,0.945205,-0.208743,-0.286381,-21.875206,-61.451598,12.828836
1783986154.9866,16:42:34.986,24,false,0.315013,-0.493713,0.34967,0.731262,0.940322,-0.225345,-0.280522,-21.841039,-61.557144,12.951614
1783986155.0178,16:42:35.017,25,false,0.314958,-0.493225,0.350281,0.731323,0.94374,-0.225345,-0.279545,-21.795334,-61.59232,12.897621
1783986155.0489,16:42:35.048,26,false,0.314859,-0.492981,0.350586,0.731384,0.935927,-0.224857,-0.279057,-21.619616,-61.638932,13.01352
1783986155.0801,16:42:35.080,27,false,0.314658,-0.492798,0.350769,0.731506,0.944228,-0.230228,-0.283452,-21.50633,-61.501437,13.147737
1783986155.1112,16:42:35.111,28,false,0.314645,-0.492676,0.350952,0.731506,0.938369,-0.213138,-0.27808,-21.568866,-61.646861,13.074132
1783986155.1423,16:42:35.142,29,false,0.314516,-0.492798,0.350769,0.731567,0.939834,-0.220462,-0.277104,-21.475609,-61.523527,12.933118
1783986155.1735,16:42:35.173,30,false,0.314205,-0.492859,0.350708,0.731689,0.950576,-0.220951,-0.277592,-21.331863,-61.502249,12.895929
1783986155.2048,16:42:35.204,31,false,0.314355,-0.492676,0.35083,0.731689,0.949111,-0.215091,-0.273198,-21.366984,-61.587776,12.922274
1783986155.2362,16:42:35.236,0,false,0.314354,-0.492554,0.351257,0.731567,0.954482,-0.208743,-0.289799,-21.4285,-61.604935,13.035708
1783986155.2675,16:42:35.267,1,false,0.314712,-0.492249,0.351746,0.731384,0.941299,-0.218997,-0.258549,-21.409096,-61.575516,12.98826
1783986155.2988,16:42:35.298,2,false,0.314389,-0.492371,0.35199,0.731323,0.936904,-0.219486,-0.268315,-21.391632,-61.519132,13.095095
1783986155.3302,16:42:35.330,3,false,0.314261,-0.492188,0.352234,0.731384,0.94374,-0.20972,-0.267826,-21.346006,-61.602971,13.176293
1783986155.3615,16:42:35.361,4,false,0.31395,-0.49176,0.3526,0.731628,0.947158,-0.231205,-0.279057,-21.275036,-61.528887,13.099832
1783986155.3929,16:42:35.392,5,false,0.313875,-0.491455,0.352966,0.731689,0.927138,-0.22388,-0.275639,-21.061624,-61.641658,13.031018
1783986155.424,16:42:35.424,6,false,0.313798,-0.49115,0.353333,0.73175,0.947158,-0.220951,-0.28101,-21.183584,-61.758106,13.10367
1783986155.4551,16:42:35.455,7,false,0.313947,-0.490967,0.353455,0.73175,0.935439,-0.22681,-0.265873,-21.293348,-61.758232,13.049425
1783986155.4863,16:42:35.486,8,false,0.314274,-0.490723,0.353882,0.731567,0.953017,-0.228763,-0.268315,-21.302412,-62.027514,12.910882
1783986155.5174,16:42:35.517,9,false,0.314152,-0.490845,0.353821,0.731567,0.962295,-0.213626,-0.277592,-21.19094,-62.060515,12.905825
1783986155.5486,16:42:35.548,10,false,0.31443,-0.491089,0.35437,0.731018,0.945693,-0.224857,-0.267826,-21.210245,-62.15003,12.901272
1783986155.5799,16:42:35.579,11,false,0.314319,-0.491028,0.354553,0.731018,0.940322,-0.215579,-0.267338,-21.22762,-62.09601,13.001852
1783986155.6112,16:42:35.611,12,false,0.31423,-0.490906,0.354675,0.731079,0.934463,-0.22681,-0.26978,-21.168488,-62.122161,12.868067
1783986155.6426,16:42:35.642,13,false,0.314291,-0.490784,0.355042,0.730957,0.937881,-0.22388,-0.271733,-21.294715,-62.026066,12.867291
1783986155.6739,16:42:35.673,14,false,0.313958,-0.490906,0.355042,0.731018,0.953506,-0.211185,-0.276127,-21.169059,-62.104073,12.911453
1783986155.7053,16:42:35.705,15,false,0.313816,-0.490906,0.355042,0.731079,0.936904,-0.222416,-0.262943,-21.041014,-62.129417,12.786708
1783986155.7366,16:42:35.736,16,false,0.313588,-0.490784,0.355286,0.73114,0.956435,-0.240482,-0.284916,-21.060358,-62.167181,12.809021
1783986155.7679,16:42:35.767,17,false,0.313397,-0.490906,0.355286,0.73114,0.933486,-0.220951,-0.262943,-21.002998,-62.1264,12.859011
1783986155.7991,16:42:35.799,18,false,0.311977,-0.491394,0.35498,0.731567,0.946181,-0.219486,-0.26392,-21.026144,-62.164466,12.799325
1783986155.8302,16:42:35.830,19,false,0.311433,-0.491516,0.355164,0.731628,0.947646,-0.230228,-0.26685,-21.017067,-62.109002,12.865238
1783986155.8614,16:42:35.861,20,false,0.310884,-0.491638,0.355225,0.73175,0.937881,-0.224369,-0.270268,-21.008898,-62.163761,12.715206
1783986155.8925,16:42:35.892,21,false,0.310146,-0.491699,0.355408,0.731934,0.939345,-0.241947,-0.259525,-20.926777,-62.287814,12.834393
1783986155.9238,16:42:35.923,22,false,0.309466,-0.491943,0.355286,0.732117,0.945205,-0.230716,-0.268315,-20.89773,-62.324692,12.836984
1783986155.9552,16:42:35.955,23,false,0.308939,-0.492004,0.355408,0.732239,0.947646,-0.24097,-0.273198,-21.006171,-62.223298,12.809408
1783986155.9865,16:42:35.986,24,false,0.30867,-0.492126,0.355347,0.7323,0.937392,-0.229252,-0.264408,-20.969184,-62.191858,12.874313
1783986156.0179,16:42:36.017,25,false,0.308063,-0.492188,0.355286,0.732544,0.94374,-0.227787,-0.265873,-21.070481,-62.178517,12.962635
1783986156.0492,16:42:36.049,26,false,0.307968,-0.492065,0.355286,0.732666,0.936904,-0.239017,-0.279057,-21.176601,-62.256232,12.952402
1783986156.0803,16:42:36.080,27,false,0.308006,-0.491821,0.355591,0.732666,0.936904,-0.242924,-0.256107,-21.182386,-62.236453,12.988054
1783986156.1115,16:42:36.111,28,false,0.307769,-0.491699,0.355713,0.732788,0.934951,-0.240482,-0.271733,-21.127778,-62.308375,12.930417
1783986156.1426,16:42:36.142,29,false,0.307899,-0.491394,0.355896,0.732849,0.932509,-0.239994,-0.267826,-21.108538,-62.31329,12.923406
1783986156.1738,16:42:36.173,30,false,0.307633,-0.49115,0.355835,0.733154,0.949111,-0.218021,-0.280522,-21.016453,-62.377528,12.947003
1783986156.2049,16:42:36.204,31,false,0.307682,-0.491028,0.355835,0.733215,0.942763,-0.231205,-0.268803,-20.918622,-62.315712,12.983195
1783986156.2361,16:42:36.236,0,false,0.307516,-0.490906,0.355896,0.733337,0.92665,-0.239017,-0.276616,-21.114698,-62.319892,12.926044
1783986156.2672,16:42:36.267,1,false,0.307248,-0.490662,0.355835,0.733643,0.943252,-0.242435,-0.271244,-21.126673,-62.218978,12.889562
1783986156.2983,16:42:36.298,2,false,0.30693,-0.49054,0.355774,0.733887,0.937881,-0.244877,-0.279057,-21.137452,-62.277694,12.90159
1783986156.3297,16:42:36.329,3,false,0.306563,-0.49054,0.355713,0.73407,0.933486,-0.238041,-0.275639,-21.012567,-62.240815,12.673154
1783986156.361,16:42:36.361,4,false,0.306417,-0.49054,0.355713,0.734131,0.929091,-0.231693,-0.284428,-21.04971,-62.3123,12.6171
1783986156.3924,16:42:36.392,5,false,0.306271,-0.490356,0.355713,0.734314,0.92958,-0.237552,-0.271733,-20.993415,-62.212145,12.761051
1783986156.4237,16:42:36.423,6,false,0.306374,-0.490112,0.355835,0.734375,0.953017,-0.233646,-0.271244,-21.062381,-62.25659,13.010238
1783986156.455,16:42:36.455,7,false,0.306249,-0.490051,0.355774,0.734497,0.946181,-0.228763,-0.284428,-21.094542,-62.191914,12.995244
1783986156.4862,16:42:36.486,8,false,0.306152,-0.489929,0.355774,0.734619,0.929091,-0.230228,-0.268315,-21.003856,-62.26829,13.086427
1783986156.5175,16:42:36.517,9,false,0.306028,-0.489868,0.355713,0.734741,0.927626,-0.233158,-0.273198,-20.907285,-62.247305,12.854461
1783986156.5487,16:42:36.548,10,false,0.305485,-0.489929,0.355591,0.734985,0.942275,-0.238041,-0.272709,-20.835326,-62.258327,12.735415
1783986156.5798,16:42:36.579,11,false,0.305512,-0.489868,0.355652,0.734985,0.950576,-0.230716,-0.267338,-20.755608,-62.238338,12.717996
1783986156.6109,16:42:36.610,12,false,0.305623,-0.489624,0.356018,0.734924,0.935439,-0.245365,-0.26392,-20.668908,-62.310072,12.657457
1783986156.6421,16:42:36.642,13,false,0.305334,-0.489624,0.35614,0.734985,0.932509,-0.245365,-0.274662,-20.75537,-62.210139,12.692696
1783986156.6732,16:42:36.673,14,false,0.305267,-0.489441,0.356323,0.735046,0.932021,-0.247318,-0.270268,-20.952817,-62.165062,12.79918
1783986156.7046,16:42:36.704,15,false,0.305302,-0.489197,0.356628,0.735046,0.948135,-0.238041,-0.269291,-21.010889,-62.229169,12.775384
1783986156.7359,16:42:36.735,16,false,0.305409,-0.489136,0.356873,0.734924,0.940322,-0.228275,-0.271244,-20.958476,-62.331727,12.903507
1783986156.7672,16:42:36.767,17,false,0.305461,-0.489014,0.356995,0.734924,0.92958,-0.228763,-0.270268,-20.836535,-62.379168,12.869279
1783986156.7986,16:42:36.798,18,false,0.304892,-0.489136,0.356812,0.735168,0.935439,-0.239506,-0.275639,-20.741743,-62.332141,12.82352
1783986156.8299,16:42:36.829,19,false,0.304624,-0.489075,0.356873,0.735291,0.931533,-0.253666,-0.272221,-20.566706,-62.349633,12.737475
1783986156.8613,16:42:36.861,20,false,0.304427,-0.489014,0.356873,0.735413,0.94081,-0.237064,-0.279545,-20.678343,-62.275652,12.749758
1783986156.8926,16:42:36.892,21,false,0.304253,-0.489075,0.356812,0.735474,0.929091,-0.240482,-0.267338,-20.629277,-62.388516,12.611274
1783986156.9237,16:42:36.923,22,false,0.303784,-0.489136,0.35675,0.735657,0.936416,-0.249271,-0.273686,-20.704749,-62.265786,12.591316
1783986156.9549,16:42:36.954,23,false,0.30351,-0.489075,0.356689,0.73584,0.931533,-0.247807,-0.275639,-20.638089,-62.170282,12.588307
1783986156.986,16:42:36.986,24,false,0.303392,-0.488831,0.356873,0.735962,0.941787,-0.258549,-0.272221,-20.802402,-62.203959,12.70523
1783986157.0172,16:42:37.017,25,false,0.303696,-0.488647,0.357117,0.73584,0.944228,-0.244388,-0.284916,-20.725977,-62.189408,12.631014
1783986157.0483,16:42:37.048,26,false,0.303722,-0.488586,0.357178,0.73584,0.944717,-0.243412,-0.277104,-20.64224,-62.310896,12.713758
1783986157.0796,16:42:37.079,27,false,0.303801,-0.488403,0.357361,0.73584,0.930068,-0.248783,-0.281498,-20.596785,-62.240789,12.608782
1783986157.111,16:42:37.111,28,false,0.303876,-0.48822,0.357422,0.735901,0.939834,-0.244877,-0.276616,-20.481105,-62.312277,12.484396
1783986157.1423,16:42:37.142,29,false,0.303255,-0.488464,0.357239,0.736084,0.939345,-0.253666,-0.273198,-20.496625,-62.316801,12.447217
1783986157.1737,16:42:37.173,30,false,0.303057,-0.488403,0.357239,0.736206,0.945205,-0.241459,-0.271244,-20.660131,-62.380689,12.518434
1783986157.205,16:42:37.205,31,false,0.302935,-0.488342,0.3573,0.736267,0.933974,-0.248295,-0.275639,-20.747471,-62.348464,12.522713
1783986157.2361,16:42:37.236,0,false,0.30304,-0.488098,0.357544,0.736267,0.951064,-0.253666,-0.271244,-20.676538,-62.289554,12.571426
1783986157.2675,16:42:37.267,1,false,0.303066,-0.488037,0.357605,0.736267,0.936416,-0.247318,-0.27808,-20.672515,-62.401027,12.630221
1783986157.2986,16:42:37.298,2,false,0.302792,-0.487976,0.357544,0.73645,0.937392,-0.253178,-0.271733,-20.65394,-62.366769,12.623322
1783986157.3298,16:42:37.329,3,false,0.302425,-0.487793,0.357727,0.736633,0.935927,-0.244877,-0.28101,-20.652176,-62.395752,12.676928
1783986157.3609,16:42:37.360,4,false,0.302593,-0.487915,0.357544,0.736572,0.92958,-0.246342,-0.277104,-20.560865,-62.586328,12.665358
1783986157.392,16:42:37.392,5,false,0.302658,-0.488098,0.357239,0.736572,0.936416,-0.2439,-0.265873,-20.747855,-62.443817,12.684852
1783986157.4232,16:42:37.423,6,false,0.302735,-0.488098,0.3573,0.736511,0.944228,-0.251225,-0.272221,-20.796515,-62.405279,12.822028
1783986157.4545,16:42:37.454,7,false,0.302761,-0.488037,0.357361,0.736511,0.939345,-0.234623,-0.279057,-20.795448,-62.415457,12.870717
1783986157.4859,16:42:37.485,8,false,0.302433,-0.488098,0.357178,0.736694,0.930556,-0.239994,-0.265385,-20.944025,-62.379755,12.88463
1783986157.5172,16:42:37.517,9,false,0.302162,-0.488037,0.357239,0.736816,0.934951,-0.245853,-0.27808,-20.973068,-62.272855,12.852289
1783986157.5486,16:42:37.548,10,false,0.302164,-0.487854,0.357361,0.736877,0.925185,-0.259037,-0.276616,-20.924438,-62.221506,12.868045
1783986157.5799,16:42:37.579,11,false,0.301843,-0.487732,0.357422,0.737061,0.92958,-0.255131,-0.279057,-20.88067,-62.32483,12.837363
1783986157.611,16:42:37.611,12,false,0.301976,-0.48761,0.357727,0.736938,0.929091,-0.241459,-0.281498,-20.945956,-62.44773,12.854611
1783986157.6422,16:42:37.642,13,false,0.301729,-0.487671,0.357727,0.737,0.92665,-0.242924,-0.272221,-20.870129,-62.468616,12.780411
1783986157.6733,16:42:37.673,14,false,0.301577,-0.487488,0.357727,0.737183,0.936416,-0.253666,-0.276616,-20.831793,-62.427599,12.803354
1783986157.7045,16:42:37.704,15,false,0.300651,-0.487366,0.357666,0.737671,0.935439,-0.260014,-0.279057,-20.812243,-62.420591,12.913726
1783986157.7356,16:42:37.735,16,false,0.300347,-0.487366,0.357544,0.737854,0.937392,-0.255131,-0.288334,-20.884372,-62.533915,12.953245
1783986157.7667,16:42:37.766,17,false,0.299847,-0.487671,0.357422,0.737915,0.932998,-0.238041,-0.27808,-20.919381,-62.531229,12.884136
1783986157.7979,16:42:37.797,18,false,0.299294,-0.487915,0.3573,0.738037,0.92372,-0.2439,-0.267826,-20.92098,-62.513858,12.836891
1783986157.829,16:42:37.829,19,false,0.298166,-0.488281,0.357239,0.738281,0.938857,-0.260014,-0.26978,-20.72802,-62.468316,12.854186
1783986157.8604,16:42:37.860,20,false,0.297,-0.488708,0.356995,0.738586,0.932509,-0.242435,-0.275151,-20.644079,-62.487144,12.675352
1783986157.8917,16:42:37.891,21,false,0.29588,-0.489197,0.35675,0.738831,0.922744,-0.254154,-0.273198,-20.643301,-62.249874,12.723755
1783986157.923,16:42:37.923,22,false,0.295289,-0.489319,0.356567,0.739075,0.944228,-0.250736,-0.283452,-20.627647,-62.230731,12.647686
1783986157.9544,16:42:37.954,23,false,0.295215,-0.489319,0.356628,0.739075,0.936416,-0.247807,-0.272709,-20.73319,-62.348087,12.624087
1783986157.9857,16:42:37.985,24,false,0.294559,-0.48999,0.356628,0.738892,0.942763,-0.247318,-0.267826,-20.678639,-62.304168,12.647708
1783986158.0169,16:42:38.016,25,false,0.293628,-0.490723,0.356262,0.738953,0.938857,-0.258061,-0.268803,-20.704313,-62.339411,12.624106
1783986158.048,16:42:38.048,26,false,0.292556,-0.491577,0.355713,0.739075,0.932021,-0.24683,-0.259037,-20.802189,-62.266453,12.572957
1783986158.0791,16:42:38.079,27,false,0.292191,-0.491882,0.355591,0.739075,0.938857,-0.259037,-0.26978,-20.710831,-62.380236,12.601692
1783986158.1103,16:42:38.110,28,false,0.292014,-0.491943,0.355652,0.739075,0.933974,-0.24683,-0.258549,-20.808055,-62.303195,12.806999
1783986158.1414,16:42:38.141,29,false,0.292362,-0.491699,0.355957,0.738953,0.94081,-0.253666,-0.271733,-20.731064,-62.129181,12.902052
1783986158.1726,16:42:38.172,30,false,0.292367,-0.491699,0.356079,0.738892,0.936416,-0.247318,-0.26099,-20.796357,-62.107154,13.002554
1783986158.2039,16:42:38.203,31,false,0.292213,-0.491699,0.356079,0.738953,0.938369,-0.253666,-0.266361,-20.720536,-62.072375,12.898606
1783986158.2352,16:42:38.235,0,false,0.291177,-0.491943,0.355957,0.739258,0.931533,-0.257572,-0.260014,-20.697159,-62.070982,12.685422
1783986158.2666,16:42:38.266,1,false,0.290919,-0.492004,0.355957,0.739319,0.94081,-0.261479,-0.259525,-20.720981,-62.23422,12.58328
1783986158.2979,16:42:38.297,2,false,0.290344,-0.491943,0.356384,0.73938,0.92958,-0.250736,-0.26099,-20.667651,-62.276457,12.356767
1783986158.3293,16:42:38.329,3,false,0.289848,-0.492004,0.356323,0.739563,0.939834,-0.256107,-0.259525,-20.739285,-62.209794,12.257582
1783986158.3606,16:42:38.360,4,false,0.289537,-0.492004,0.356323,0.739685,0.945693,-0.257084,-0.267826,-20.714033,-62.31429,12.362716
1783986158.3919,16:42:38.391,5,false,0.289541,-0.491821,0.356445,0.739746,0.94081,-0.272221,-0.272221,-20.766075,-62.288705,12.502198
1783986158.4231,16:42:38.423,6,false,0.289528,-0.491516,0.35675,0.739807,0.935927,-0.272221,-0.266361,-20.678329,-62.400263,12.567916
1783986158.4542,16:42:38.454,7,false,0.289255,-0.491455,0.357056,0.739807,0.930068,-0.270756,-0.259525,-20.614311,-62.410943,12.612108
1783986158.4854,16:42:38.485,8,false,0.289653,-0.491455,0.357239,0.739563,0.928603,-0.262943,-0.267826,-20.631463,-62.6,12.651882
1783986158.5165,16:42:38.516,9,false,0.290068,-0.491394,0.357239,0.739441,0.939345,-0.24683,-0.270268,-20.572132,-62.515937,12.867124
1783986158.5476,16:42:38.547,10,false,0.290096,-0.491333,0.3573,0.739441,0.940322,-0.256596,-0.265873,-20.563595,-62.619726,12.911303
1783986158.5788,16:42:38.578,11,false,0.290062,-0.491211,0.357117,0.739624,0.934951,-0.241459,-0.263432,-20.660589,-62.638367,12.741711
1783986158.6101,16:42:38.610,12,false,0.289902,-0.491394,0.356995,0.739624,0.932021,-0.254643,-0.260014,-20.508621,-62.640189,12.813386
1783986158.6415,16:42:38.641,13,false,0.290067,-0.491211,0.357239,0.739563,0.930068,-0.265873,-0.253666,-20.506436,-62.701645,12.907801
1783986158.6728,16:42:38.672,14,false,0.289813,-0.491272,0.357361,0.739563,0.936416,-0.255131,-0.267338,-20.654007,-62.637325,12.918005
1783986158.7041,16:42:38.704,15,false,0.28987,-0.49115,0.357483,0.739563,0.92958,-0.258061,-0.261967,-20.502698,-62.714021,12.97205
1783986158.7353,16:42:38.735,16,false,0.289402,-0.49115,0.357483,0.739746,0.92079,-0.269291,-0.267338,-20.396427,-62.678371,13.020691
1783986158.7664,16:42:38.766,17,false,0.289772,-0.490662,0.357727,0.739807,0.927138,-0.273198,-0.259037,-20.405461,-62.691147,13.15419
1783986158.7976,16:42:38.797,18,false,0.290078,-0.490112,0.357727,0.740051,0.930068,-0.260014,-0.272221,-20.428545,-62.612923,13.07994
1783986158.8287,16:42:38.828,19,false,0.290724,-0.489685,0.357788,0.740051,0.945693,-0.24683,-0.275639,-20.359598,-62.677106,13.102838
1783986158.8599,16:42:38.859,20,false,0.290854,-0.489563,0.357849,0.740051,0.951553,-0.241947,-0.281987,-20.387268,-62.675055,13.033723
1783986158.891,16:42:38.891,21,false,0.290852,-0.48938,0.357849,0.740173,0.949111,-0.257572,-0.26392,-20.427125,-62.762932,12.986474
1783986158.9221,16:42:38.922,22,false,0.290491,-0.489502,0.357849,0.740234,0.935927,-0.24976,-0.272221,-20.433089,-62.737344,12.839272
1783986158.9533,16:42:38.953,23,false,0.290185,-0.489502,0.357971,0.740295,0.931533,-0.261967,-0.266361,-20.318826,-62.714316,12.78156
1783986158.9846,16:42:38.984,24,false,0.290079,-0.48938,0.357971,0.740417,0.931533,-0.264408,-0.264408,-20.380481,-62.783313,12.714665
1783986159.016,16:42:39.016,25,false,0.289614,-0.489197,0.358093,0.740662,0.940322,-0.262943,-0.27808,-20.361201,-62.740733,12.789044
1783986159.0473,16:42:39.047,26,false,0.289197,-0.488892,0.358215,0.740967,0.940322,-0.262455,-0.272709,-20.269081,-62.73232,12.855985
1783986159.0786,16:42:39.078,27,false,0.288705,-0.488953,0.358276,0.741089,0.940322,-0.265385,-0.262455,-20.440387,-62.784563,12.901279
1783986159.11,16:42:39.110,28,false,0.288373,-0.488647,0.358582,0.741272,0.927138,-0.270756,-0.279057,-20.474932,-62.861489,12.867274
1783986159.1413,16:42:39.141,29,false,0.288272,-0.488342,0.358826,0.741394,0.938369,-0.274174,-0.278569,-20.476115,-62.900815,12.911438
1783986159.1727,16:42:39.172,30,false,0.288409,-0.488037,0.359131,0.741394,0.937881,-0.276127,-0.280522,-20.402411,-62.966116,12.951186
1783986159.2038,16:42:39.203,31,false,0.288199,-0.487793,0.359253,0.741577,0.934951,-0.269291,-0.277592,-20.291215,-62.950118,12.98696
1783986159.2349,16:42:39.234,0,false,0.287966,-0.487793,0.359314,0.741638,0.926162,-0.267826,-0.268315,-20.280862,-62.950673,12.929432
1783986159.2663,16:42:39.266,1,false,0.288178,-0.487488,0.359558,0.741638,0.942275,-0.275151,-0.267338,-20.316406,-63.025943,12.84775
1783986159.2974,16:42:39.297,2,false,0.288025,-0.487488,0.35968,0.741638,0.938857,-0.254154,-0.275639,-20.213811,-63.078731,12.863959
1783986159.3286,16:42:39.328,3,false,0.287346,-0.487793,0.359558,0.74176,0.92665,-0.272709,-0.260502,-20.13643,-63.036517,12.818732
1783986159.3599,16:42:39.359,4,false,0.287432,-0.48761,0.359863,0.741699,0.925673,-0.280034,-0.26685,-20.141555,-63.103202,12.957474
1783986159.3912,16:42:39.391,5,false,0.287149,-0.487549,0.360046,0.74176,0.939345,-0.265873,-0.272709,-20.176076,-62.998726,13.03748
1783986159.4226,16:42:39.422,6,false,0.287153,-0.487366,0.360291,0.74176,0.92665,-0.272221,-0.262455,-20.177237,-63.114051,13.079578
1783986159.4539,16:42:39.453,7,false,0.287158,-0.487183,0.360535,0.74176,0.929091,-0.27808,-0.261967,-20.13342,-63.008491,12.997835
1783986159.4853,16:42:39.485,8,false,0.287049,-0.487061,0.360535,0.741882,0.927138,-0.259525,-0.275151,-20.258478,-63.003209,12.93922
1783986159.5166,16:42:39.516,9,false,0.286761,-0.487,0.360596,0.742004,0.924208,-0.266361,-0.264897,-20.326168,-62.998455,12.991144
1783986159.5479,16:42:39.547,10,false,0.286602,-0.486816,0.360718,0.742126,0.934463,-0.275151,-0.273198,-20.297366,-63.053992,13.022922
1783986159.5791,16:42:39.579,11,false,0.286308,-0.486755,0.360657,0.74231,0.940322,-0.275639,-0.273198,-20.391075,-62.954437,12.946844
1783986159.6102,16:42:39.610,12,false,0.285725,-0.486816,0.360535,0.742554,0.942275,-0.277104,-0.273198,-20.355782,-63.119053,12.878375
1783986159.6414,16:42:39.641,13,false,0.285783,-0.486694,0.360779,0.742493,0.937881,-0.268315,-0.260014,-20.234295,-63.102715,12.876568
1783986159.6725,16:42:39.672,14,false,0.285403,-0.487061,0.360962,0.74231,0.942275,-0.268803,-0.24683,-20.139911,-63.043149,12.994572
1783986159.7038,16:42:39.703,15,false,0.285249,-0.487061,0.361084,0.74231,0.930556,-0.267338,-0.252689,-20.025058,-63.168986,13.100776
1783986159.7352,16:42:39.735,16,false,0.285437,-0.486633,0.361511,0.74231,0.913466,-0.266361,-0.273686,-19.891782,-63.192516,13.031867
1783986159.7665,16:42:39.766,17,false,0.285323,-0.486511,0.361389,0.742493,0.956924,-0.264897,-0.287358,-19.951281,-63.12397,12.880126
1783986159.7979,16:42:39.797,18,false,0.285015,-0.486694,0.361511,0.742432,0.924697,-0.271244,-0.274662,-20.109506,-63.017418,12.818329
1783986159.8292,16:42:39.829,19,false,0.284883,-0.486633,0.361572,0.742493,0.92665,-0.271733,-0.264408,-20.147231,-63.071058,12.867388
1783986159.8603,16:42:39.860,20,false,0.284377,-0.486511,0.361633,0.742737,0.92665,-0.285893,-0.272709,-20.255954,-63.089428,12.806864
1783986159.8917,16:42:39.891,21,false,0.283976,-0.486511,0.361572,0.74292,0.930556,-0.284916,-0.26978,-20.368758,-63.150821,12.812208
1783986159.923,16:42:39.923,22,false,0.283874,-0.486389,0.361816,0.74292,0.930556,-0.28687,-0.271733,-20.560004,-63.265891,12.936648
1783986159.9542,16:42:39.954,23,false,0.284015,-0.486084,0.362366,0.742798,0.927626,-0.264897,-0.268315,-20.492865,-63.234869,12.988829
1783986159.9853,16:42:39.985,24,false,0.283405,-0.486206,0.362305,0.742981,0.92372,-0.284428,-0.274174,-20.507208,-63.177042,12.901207
1783986160.0164,16:42:40.016,25,false,0.28341,-0.486023,0.362671,0.74292,0.936904,-0.284916,-0.272221,-20.475256,-63.349305,12.956932
1783986160.0476,16:42:40.047,26,false,0.283066,-0.486267,0.362488,0.742981,0.92372,-0.279057,-0.267338,-20.401638,-63.444526,12.917362
1783986160.0787,16:42:40.078,27,false,0.282801,-0.486328,0.362488,0.743042,0.924208,-0.27808,-0.263432,-20.425104,-63.261056,13.016333
1783986160.1101,16:42:40.110,28,false,0.282959,-0.486145,0.36261,0.743042,0.927626,-0.284428,-0.265385,-20.206962,-63.260426,12.911007
1783986160.1414,16:42:40.141,29,false,0.28301,-0.486206,0.362488,0.743042,0.932021,-0.275639,-0.270756,-20.26485,-63.185089,12.92089
1783986160.1728,16:42:40.172,30,false,0.283884,-0.48584,0.362671,0.742859,0.92958,-0.274662,-0.267338,-20.107595,-63.207009,12.944739
1783986160.2041,16:42:40.204,31,false,0.284122,-0.48584,0.36261,0.742798,0.926162,-0.277104,-0.271244,-20.17542,-63.092152,12.981157
1783986160.2354,16:42:40.235,0,false,0.284675,-0.485657,0.362671,0.742676,0.937881,-0.280522,-0.267826,-20.101877,-63.123366,13.073749
1783986160.2668,16:42:40.266,1,false,0.284858,-0.485413,0.362854,0.742676,0.930556,-0.279057,-0.268315,-20.110458,-63.151458,13.157081
1783986160.2979,16:42:40.297,2,false,0.284989,-0.485291,0.362915,0.742676,0.943252,-0.287846,-0.268803,-20.19295,-63.206648,13.157311
1783986160.3291,16:42:40.329,3,false,0.285119,-0.484985,0.36322,0.742676,0.931044,-0.266361,-0.280522,-20.117654,-63.226412,13.082749
1783986160.3602,16:42:40.360,4,false,0.285197,-0.484802,0.363403,0.742676,0.932509,-0.281987,-0.275639,-20.034934,-63.184385,13.180135
1783986160.3915,16:42:40.391,5,false,0.28543,-0.484436,0.363708,0.742676,0.932998,-0.273686,-0.273686,-19.930579,-63.191421,13.193013
1783986160.4227,16:42:40.422,6,false,0.285508,-0.484253,0.363892,0.742676,0.922255,-0.275639,-0.276616,-20.016105,-63.197754,13.279373
1783986160.4538,16:42:40.453,7,false,0.285481,-0.484131,0.364075,0.742676,0.92079,-0.268315,-0.273686,-20.003355,-63.173546,13.267374
1783986160.4852,16:42:40.485,8,false,0.285745,-0.483887,0.364441,0.742554,0.931533,-0.26685,-0.268315,-19.976927,-63.181666,13.196759
1783986160.5165,16:42:40.516,9,false,0.285619,-0.484009,0.364502,0.742493,0.937392,-0.27808,-0.255131,-19.953141,-63.144113,13.252837
1783986160.5478,16:42:40.547,10,false,0.285537,-0.483826,0.364685,0.742554,0.931533,-0.287358,-0.267338,-20.051365,-63.125269,13.348168
1783986160.5792,16:42:40.579,11,false,0.285825,-0.483521,0.365112,0.742432,0.928603,-0.289799,-0.279057,-20.064997,-63.22794,13.299382
1783986160.6105,16:42:40.610,12,false,0.285674,-0.483704,0.365112,0.742371,0.930068,-0.295171,-0.275639,-20.002497,-63.350252,13.180705
1783986160.6419,16:42:40.641,13,false,0.285764,-0.483887,0.365295,0.742126,0.933974,-0.293706,-0.272709,-19.901385,-63.29584,13.163618
1783986160.6732,16:42:40.673,14,false,0.285845,-0.483887,0.365356,0.742065,0.934463,-0.282475,-0.266361,-19.810384,-63.426315,13.148241
1783986160.7045,16:42:40.704,15,false,0.285581,-0.483765,0.365601,0.742126,0.928115,-0.28394,-0.275639,-19.982699,-63.483928,13.134401
1783986160.7357,16:42:40.735,16,false,0.285686,-0.483704,0.365723,0.742065,0.935439,-0.279545,-0.271733,-19.808798,-63.565687,13.25653
1783986160.7668,16:42:40.766,17,false,0.285877,-0.483826,0.365784,0.741882,0.921279,-0.282963,-0.265873,-19.831733,-63.459824,13.186999
1783986160.798,16:42:40.798,18,false,0.285459,-0.48407,0.36554,0.742004,0.936416,-0.282475,-0.277104,-19.822467,-63.319686,13.124422
1783986160.8291,16:42:40.829,19,false,0.285353,-0.484131,0.365417,0.742065,0.937392,-0.267338,-0.259037,-19.754312,-63.358054,13.053149
1783986160.8604,16:42:40.860,20,false,0.285358,-0.484131,0.365662,0.741943,0.92958,-0.283452,-0.26392,-19.72288,-63.437446,13.138541
1783986160.8918,16:42:40.891,21,false,0.285698,-0.483887,0.365967,0.741821,0.944717,-0.280034,-0.257084,-19.64973,-63.419177,13.125671
1783986160.9231,16:42:40.923,22,false,0.285541,-0.483887,0.366089,0.741821,0.927138,-0.272221,-0.270268,-19.763341,-63.402734,13.114088
1783986160.9545,16:42:40.954,23,false,0.285118,-0.483948,0.365967,0.742004,0.929091,-0.27808,-0.265385,-19.731006,-63.477659,13.043848
1783986160.9858,16:42:40.985,24,false,0.28504,-0.483948,0.366028,0.742004,0.916396,-0.273686,-0.263432,-19.821536,-63.500229,13.085309
1783986161.0171,16:42:41.017,25,false,0.2848,-0.483948,0.365967,0.742126,0.934463,-0.28101,-0.260014,-19.843197,-63.580358,13.152532
1783986161.0485,16:42:41.048,26,false,0.284876,-0.483765,0.36615,0.742126,0.932509,-0.284916,-0.273198,-19.922507,-63.562751,13.183124
1783986161.0796,16:42:41.079,27,false,0.285135,-0.483521,0.366394,0.742065,0.935439,-0.284428,-0.26685,-19.874256,-63.621674,13.255519
1783986161.111,16:42:41.111,28,false,0.284818,-0.483521,0.366394,0.742188,0.944717,-0.281987,-0.277104,-19.95046,-63.674704,13.275813
1783986161.1421,16:42:41.142,29,false,0.284787,-0.483398,0.366455,0.742249,0.925185,-0.281987,-0.269291,-19.719968,-63.677571,13.338939
1783986161.1732,16:42:41.173,30,false,0.284709,-0.483398,0.366516,0.742249,0.924697,-0.288823,-0.262455,-19.766739,-63.68015,13.291075
1783986161.2044,16:42:41.204,31,false,0.284582,-0.483521,0.366577,0.742188,0.922255,-0.283452,-0.264408,-19.86865,-63.817056,13.21809
1783986161.2357,16:42:41.235,0,false,0.284378,-0.483643,0.366821,0.742065,0.912978,-0.283452,-0.264408,-19.885599,-63.760825,13.227173
1783986161.2671,16:42:41.267,1,false,0.284324,-0.483582,0.366943,0.742065,0.92958,-0.274174,-0.261479,-20.020485,-63.814895,13.310117
1783986161.2984,16:42:41.298,2,false,0.284591,-0.483521,0.367188,0.741882,0.936904,-0.27808,-0.267826,-20.022251,-63.639249,13.20532
1783986161.3297,16:42:41.329,3,false,0.285014,-0.483459,0.36731,0.741699,0.92372,-0.285405,-0.267826,-19.934118,-63.72043,13.230634
1783986161.3611,16:42:41.361,4,false,0.285069,-0.483521,0.36731,0.741638,0.926162,-0.279057,-0.274662,-19.944521,-63.748631,13.208555
1783986161.3924,16:42:41.392,5,false,0.284855,-0.483459,0.36731,0.74176,0.923232,-0.292729,-0.275639,-20.028653,-63.774012,13.263453
1783986161.4238,16:42:41.423,6,false,0.284954,-0.483215,0.367554,0.74176,0.939345,-0.291752,-0.28101,-19.969787,-63.811809,13.253046
1783986161.4549,16:42:41.454,7,false,0.285088,-0.483276,0.367493,0.741699,0.92665,-0.287846,-0.261967,-19.901854,-63.711242,13.258633
1783986161.486,16:42:41.486,8,false,0.284619,-0.483459,0.367493,0.74176,0.921767,-0.28394,-0.253666,-20.005206,-63.680546,13.248708
1783986161.5172,16:42:41.517,9,false,0.2843,-0.483459,0.367493,0.741882,0.934951,-0.295171,-0.265385,-19.903823,-63.637966,13.224821
1783986161.5483,16:42:41.548,10,false,0.28443,-0.483337,0.367676,0.741821,0.932021,-0.282475,-0.274662,-19.887348,-63.599645,13.382769
1783986161.5795,16:42:41.579,11,false,0.284273,-0.483337,0.367798,0.741821,0.928603,-0.2981,-0.255131,-19.902428,-63.595063,13.375384
1783986161.6106,16:42:41.610,12,false,0.284139,-0.483276,0.367981,0.741821,0.928603,-0.300542,-0.264897,-20.035631,-63.561032,13.368738
1783986161.642,16:42:41.642,13,false,0.28427,-0.483154,0.368286,0.741699,0.924208,-0.289311,-0.256107,-20.005975,-63.605173,13.407617
1783986161.6733,16:42:41.673,14,false,0.284161,-0.483032,0.36853,0.741699,0.918837,-0.287358,-0.257572,-19.949377,-63.540223,13.457563
1783986161.7046,16:42:41.704,15,false,0.284024,-0.482971,0.368347,0.741882,0.933974,-0.294682,-0.272221,-19.973208,-63.526629,13.397837
1783986161.7358,16:42:41.735,16,false,0.283782,-0.482971,0.368042,0.742126,0.921279,-0.279057,-0.270756,-20.039517,-63.409718,13.344084
1783986161.7669,16:42:41.766,17,false,0.283405,-0.48291,0.36792,0.742371,0.92958,-0.285893,-0.261479,-20.009472,-63.319452,13.23589
1783986161.7981,16:42:41.798,18,false,0.283115,-0.483032,0.367737,0.742493,0.932509,-0.288334,-0.264408,-20.027294,-63.283074,13.123562
1783986161.8292,16:42:41.829,19,false,0.282664,-0.483154,0.367554,0.742676,0.932509,-0.284916,-0.269291,-20.073241,-63.160611,13.11219
1783986161.8603,16:42:41.860,20,false,0.282262,-0.483154,0.367493,0.742859,0.925185,-0.294194,-0.272709,-20.069731,-63.170025,13.101956
1783986161.8915,16:42:41.891,21,false,0.282393,-0.483032,0.367676,0.742798,0.932998,-0.274174,-0.262455,-20.081527,-63.118682,13.137606
1783986161.9226,16:42:41.922,22,false,0.282178,-0.482971,0.367798,0.742859,0.915419,-0.292729,-0.263432,-20.151958,-63.207058,13.154737
1783986161.954,16:42:41.954,23,false,0.281581,-0.482849,0.367676,0.743225,0.925185,-0.295171,-0.26978,-20.200392,-63.226781,13.125294
1783986161.9853,16:42:41.985,24,false,0.281524,-0.482788,0.367676,0.743286,0.930068,-0.2981,-0.280522,-20.124353,-63.169762,13.098795
1783986162.0166,16:42:42.016,25,false,0.281089,-0.482666,0.367676,0.74353,0.922744,-0.291264,-0.270756,-20.011055,-63.282938,13.01513
1783986162.048,16:42:42.048,26,false,0.280952,-0.482605,0.367737,0.743591,0.925185,-0.289311,-0.268315,-19.983857,-63.20535,13.089371
1783986162.0793,16:42:42.079,27,false,0.280529,-0.482849,0.367493,0.743713,0.930068,-0.28394,-0.272221,-20.153778,-63.255151,13.096372
1783986162.1107,16:42:42.110,28,false,0.280529,-0.482849,0.367493,0.743713,0.918349,-0.287846,-0.262943,-20.187077,-63.21025,13.117626
1783986162.142,16:42:42.142,29,false,0.280072,-0.483154,0.366821,0.744019,0.925185,-0.280034,-0.267826,-20.187137,-63.154884,13.047033
1783986162.1731,16:42:42.173,30,false,0.280364,-0.483215,0.366394,0.74408,0.930068,-0.2981,-0.267826,-20.0227,-63.23964,13.073221
1783986162.2043,16:42:42.204,31,false,0.281613,-0.482727,0.366699,0.743774,0.916396,-0.272221,-0.281498,-20.099014,-63.375735,13.17156
1783986162.2354,16:42:42.235,0,false,0.282171,-0.482544,0.366882,0.743591,0.932021,-0.271733,-0.276127,-19.958343,-63.303821,13.245111
1783986162.2666,16:42:42.266,1,false,0.282309,-0.482605,0.366943,0.743469,0.938369,-0.263432,-0.287358,-19.801831,-63.269007,13.236538
1783986162.2977,16:42:42.297,2,false,0.282228,-0.482605,0.366882,0.74353,0.928115,-0.276616,-0.279057,-19.900232,-63.372258,13.213869
1783986162.3288,16:42:42.328,3,false,0.282042,-0.482666,0.366821,0.743591,0.927138,-0.290288,-0.28101,-19.973839,-63.405368,13.058881
1783986162.36,16:42:42.360,4,false,0.281835,-0.482788,0.366943,0.74353,0.919814,-0.281498,-0.26685,-20.069993,-63.360399,13.098839
1783986162.3913,16:42:42.391,5,false,0.281785,-0.482727,0.36731,0.743408,0.919814,-0.294682,-0.268315,-20.036901,-63.379742,13.164709
1783986162.4227,16:42:42.422,6,false,0.282079,-0.482605,0.367615,0.743225,0.935439,-0.28394,-0.277592,-20.037025,-63.442012,13.253899
1783986162.454,16:42:42.454,7,false,0.281704,-0.482544,0.367859,0.743286,0.931533,-0.304936,-0.261967,-20.111907,-63.498055,13.184632
1783986162.4853,16:42:42.485,8,false,0.281841,-0.482605,0.36792,0.743164,0.922744,-0.2981,-0.28101,-20.239115,-63.443816,13.182106
1783986162.5167,16:42:42.516,9,false,0.281786,-0.482544,0.368042,0.743164,0.931533,-0.281987,-0.272221,-20.06948,-63.454817,13.239649
1783986162.5478,16:42:42.547,10,false,0.281814,-0.482483,0.368347,0.743042,0.928603,-0.299077,-0.26392,-20.066347,-63.360041,13.291438
1783986162.579,16:42:42.579,11,false,0.281491,-0.482483,0.368225,0.743225,0.922744,-0.281987,-0.274174,-20.078481,-63.394374,13.128694
1783986162.6101,16:42:42.610,12,false,0.280983,-0.482544,0.368286,0.743347,0.953994,-0.282963,-0.276616,-19.999678,-63.589765,13.146716
1783986162.6412,16:42:42.641,13,false,0.280798,-0.482605,0.368347,0.743347,0.930068,-0.296147,-0.253666,-20.048387,-63.631033,13.088167
1783986162.6724,16:42:42.672,14,false,0.279935,-0.482544,0.368591,0.743591,0.930068,-0.319097,-0.26978,-20.122132,-63.698081,13.035473
1783986162.7035,16:42:42.703,15,false,0.279954,-0.4823,0.368896,0.743591,0.920302,-0.302007,-0.265385,-20.113734,-63.758425,13.062818
1783986162.7349,16:42:42.734,16,false,0.279656,-0.482239,0.36908,0.743652,0.927626,-0.305425,-0.264408,-20.091221,-63.752919,13.147243
1783986162.7662,16:42:42.766,17,false,0.279606,-0.482361,0.368958,0.743652,0.92958,-0.289311,-0.266361,-20.026098,-63.792825,12.998919
1783986162.7975,16:42:42.797,18,false,0.279644,-0.482666,0.368652,0.743591,0.925673,-0.285405,-0.258061,-19.967488,-63.783879,13.044872
1783986162.8289,16:42:42.828,19,false,0.279541,-0.48291,0.368164,0.743713,0.925673,-0.27808,-0.280034,-19.9596,-63.775828,13.026416
1783986162.8602,16:42:42.860,20,false,0.279869,-0.483093,0.367798,0.743652,0.932509,-0.289799,-0.272221,-19.952501,-63.813443,13.114481
1783986162.8916,16:42:42.891,21,false,0.279669,-0.483582,0.367432,0.743591,0.92079,-0.274662,-0.271733,-20.050789,-63.66785,13.089063
1783986162.9229,16:42:42.922,22,false,0.279468,-0.48407,0.367065,0.74353,0.921279,-0.275151,-0.260014,-20.019617,-63.701309,13.006372
1783986162.9541,16:42:42.954,23,false,0.27936,-0.484131,0.366943,0.743591,0.914931,-0.276127,-0.259037,-20.006516,-63.56693,13.021673
1783986162.9852,16:42:42.985,24,false,0.27896,-0.484314,0.366882,0.743652,0.934951,-0.288823,-0.260502,-20.084448,-63.416082,12.975628
1783986163.0163,16:42:43.016,25,false,0.27896,-0.484314,0.366882,0.743652,0.921767,-0.277104,-0.252689,-20.169541,-63.235456,13.17345
1783986163.0475,16:42:43.047,26,false,0.278717,-0.484314,0.366943,0.743713,0.921767,-0.285893,-0.256596,-20.096587,-63.357016,13.172043
1783986163.0786,16:42:43.078,27,false,0.278422,-0.484436,0.366882,0.743774,0.916396,-0.293706,-0.261967,-20.255235,-63.391651,13.140869
1783986163.1098,16:42:43.109,28,false,0.278856,-0.484375,0.367004,0.743591,0.92372,-0.30396,-0.260502,-20.24848,-63.318145,13.172628
1783986163.1411,16:42:43.141,29,false,0.278908,-0.484436,0.36676,0.743652,0.925185,-0.299565,-0.272221,-20.212493,-63.25199,13.171303
1783986163.1724,16:42:43.172,30,false,0.278614,-0.484741,0.366333,0.743774,0.936904,-0.290288,-0.269291,-20.210012,-63.297128,13.020572
1783986163.2038,16:42:43.203,31,false,0.278697,-0.484741,0.366394,0.743713,0.933974,-0.287358,-0.26099,-20.252641,-63.337752,13.064361
1783986163.2351,16:42:43.235,0,false,0.278534,-0.484741,0.366394,0.743774,0.924697,-0.292729,-0.26685,-20.291007,-63.299544,12.969186
1783986163.2665,16:42:43.266,1,false,0.278342,-0.484619,0.366577,0.743835,0.916884,-0.296147,-0.259037,-20.250767,-63.310018,12.988205
1783986163.2976,16:42:43.297,2,false,0.278042,-0.484558,0.366638,0.743958,0.926162,-0.294682,-0.26099,-20.124829,-63.334399,12.945507
1783986163.3287,16:42:43.328,3,false,0.278365,-0.484375,0.366882,0.743835,0.92665,-0.293706,-0.267338,-20.026437,-63.266619,12.966895
1783986163.3599,16:42:43.359,4,false,0.278346,-0.484436,0.367188,0.743652,0.928603,-0.296147,-0.256596,-20.07247,-63.295339,13.105774
1783986163.391,16:42:43.391,5,false,0.277993,-0.484497,0.367126,0.743774,0.935439,-0.293706,-0.273198,-20.009222,-63.306234,13.036366
1783986163.4222,16:42:43.422,6,false,0.277882,-0.484375,0.367249,0.743835,0.935439,-0.290288,-0.264408,-20.027069,-63.271178,13.048667
1783986163.4533,16:42:43.453,7,false,0.278265,-0.484436,0.367249,0.743652,0.92665,-0.283452,-0.26685,-19.998269,-63.40412,13.044785
1783986163.4846,16:42:43.484,8,false,0.278889,-0.484314,0.367554,0.743347,0.928115,-0.281987,-0.270756,-20.151795,-63.598536,13.116059
1783986163.516,16:42:43.516,9,false,0.279402,-0.484253,0.367615,0.743164,0.924208,-0.275639,-0.270268,-20.200246,-63.579112,13.090484
1783986163.5473,16:42:43.547,10,false,0.27932,-0.484253,0.367554,0.743225,0.912001,-0.282475,-0.273686,-20.258805,-63.546675,13.037558
1783986163.5787,16:42:43.578,11,false,0.27918,-0.484192,0.367371,0.743408,0.934463,-0.27808,-0.268315,-20.132063,-63.517483,13.034787
1783986163.61,16:42:43.610,12,false,0.279129,-0.484314,0.367249,0.743408,0.92665,-0.294194,-0.263432,-20.242302,-63.595886,13.0622
1783986163.6413,16:42:43.641,13,false,0.278803,-0.484314,0.367249,0.74353,0.930068,-0.295659,-0.269291,-20.206932,-63.47205,12.892472
1783986163.6725,16:42:43.672,14,false,0.278615,-0.484375,0.367188,0.743591,0.938857,-0.284916,-0.264408,-20.249869,-63.64472,12.889255
1783986163.7036,16:42:43.703,15,false,0.278348,-0.484436,0.36731,0.743591,0.932998,-0.292241,-0.257572,-20.243651,-63.650584,12.88636
1783986163.7348,16:42:43.734,16,false,0.278534,-0.484192,0.367737,0.743469,0.937881,-0.291264,-0.255619,-20.282916,-63.730631,12.883754
1783986163.7659,16:42:43.765,17,false,0.278587,-0.48407,0.367981,0.743408,0.935927,-0.282963,-0.260014,-20.093947,-63.697997,13.060855
1783986163.797,16:42:43.797,18,false,0.278506,-0.48407,0.368042,0.743408,0.91249,-0.299565,-0.255131,-20.013598,-63.608811,12.980985
1783986163.8282,16:42:43.828,19,false,0.278665,-0.483887,0.368286,0.743347,0.92079,-0.285405,-0.261967,-19.956237,-63.693035,12.924055
1783986163.8593,16:42:43.859,20,false,0.27874,-0.483704,0.368469,0.743347,0.932509,-0.293706,-0.262455,-20.084059,-63.723976,13.11208
1783986163.8907,16:42:43.890,21,false,0.278709,-0.483582,0.36853,0.743408,0.933974,-0.288823,-0.277592,-20.079468,-63.751822,13.176625
1783986163.922,16:42:43.922,22,false,0.278627,-0.483582,0.368469,0.743469,0.928115,-0.286381,-0.26392,-20.060382,-63.746977,13.070224
1783986163.9533,16:42:43.953,23,false,0.27849,-0.483521,0.368652,0.743469,0.92958,-0.285405,-0.266361,-20.29742,-63.817385,13.183816
1783986163.9847,16:42:43.984,24,false,0.278941,-0.483215,0.368958,0.743347,0.916884,-0.298589,-0.270756,-20.271493,-63.895706,13.241188
1783986164.0158,16:42:44.015,25,false,0.278723,-0.483154,0.36908,0.743408,0.919326,-0.293217,-0.268315,-20.307974,-63.951241,13.2031
1783986164.0472,16:42:44.047,26,false,0.278492,-0.483521,0.368774,0.743408,0.941299,-0.293217,-0.262455,-20.191268,-63.971315,13.123959
1783986164.0783,16:42:44.078,27,false,0.278549,-0.483582,0.368774,0.743347,0.912978,-0.286381,-0.255619,-20.146048,-64.079104,13.112547
1783986164.1094,16:42:44.109,28,false,0.278305,-0.483582,0.368835,0.743408,0.933974,-0.289311,-0.262943,-20.18012,-63.951807,13.102277
1783986164.1406,16:42:44.140,29,false,0.278167,-0.483521,0.368896,0.743469,0.931044,-0.289311,-0.26392,-20.165923,-64.091455,13.19771
1783986164.1717,16:42:44.171,30,false,0.278243,-0.483337,0.369202,0.743408,0.930556,-0.28687,-0.258549,-20.242868,-64.022738,13.119108
1783986164.2029,16:42:44.202,31,false,0.27808,-0.483337,0.369202,0.743469,0.927626,-0.292729,-0.249271,-20.23735,-63.916032,13.197904
1783986164.234,16:42:44.234,0,false,0.278106,-0.483276,0.369385,0.743408,0.934951,-0.287358,-0.250248,-20.157614,-63.939627,13.22396
1783986164.2654,16:42:44.265,1,false,0.278131,-0.483215,0.369446,0.743408,0.945205,-0.291752,-0.265385,-20.145668,-63.871139,13.277317
1783986164.2967,16:42:44.296,2,false,0.278107,-0.483276,0.369507,0.743347,0.935439,-0.284428,-0.261967,-20.209685,-63.884269,13.280477
1783986164.328,16:42:44.328,3,false,0.277977,-0.483398,0.369568,0.743286,0.926162,-0.304936,-0.264897,-20.192531,-63.896086,13.253414
1783986164.3594,16:42:44.359,4,false,0.278322,-0.483154,0.369873,0.743164,0.925673,-0.287358,-0.274174,-20.296723,-63.93663,13.333733
1783986164.3907,16:42:44.390,5,false,0.27829,-0.483032,0.370056,0.743164,0.926162,-0.294682,-0.261967,-20.255912,-63.913303,13.316298
1783986164.4219,16:42:44.421,6,false,0.278071,-0.482971,0.370178,0.743225,0.923232,-0.304936,-0.257084,-20.17432,-64.01194,13.405283
1783986164.453,16:42:44.453,7,false,0.27812,-0.482849,0.3703,0.743225,0.930556,-0.297124,-0.266361,-20.160703,-64.01099,13.500324
1783986164.4841,16:42:44.484,8,false,0.278276,-0.482666,0.370544,0.743164,0.931533,-0.295659,-0.276616,-20.268078,-63.965274,13.406414
1783986164.5153,16:42:44.515,9,false,0.278275,-0.482666,0.370422,0.743225,0.932021,-0.284916,-0.264897,-20.140408,-63.84936,13.576111
1783986164.5464,16:42:44.546,10,false,0.2783,-0.482605,0.370361,0.743286,0.920302,-0.279057,-0.26099,-20.175044,-63.819806,13.549391
1783986164.5776,16:42:44.577,11,false,0.278291,-0.482422,0.370361,0.743408,0.938857,-0.292241,-0.256107,-20.1464,-63.808162,13.480483
1783986164.6087,16:42:44.608,12,false,0.278396,-0.482361,0.370239,0.743469,0.933974,-0.293217,-0.270756,-20.060806,-63.857498,13.508188
1783986164.64,16:42:44.640,13,false,0.278363,-0.482239,0.3703,0.74353,0.930556,-0.291752,-0.266361,-19.998725,-63.991623,13.398538
1783986164.6714,16:42:44.671,14,false,0.278469,-0.482178,0.3703,0.74353,0.941787,-0.278569,-0.26392,-20.062482,-64.037566,13.479299
1783986164.7027,16:42:44.702,15,false,0.278908,-0.481689,0.370728,0.743469,0.92958,-0.298589,-0.267826,-19.895556,-64.049008,13.522076
1783986164.7341,16:42:44.734,16,false,0.278875,-0.481567,0.370667,0.743591,0.940322,-0.298589,-0.273686,-19.775231,-64.059305,13.515714
1783986164.7652,16:42:44.765,17,false,0.278793,-0.481567,0.370605,0.743652,0.922255,-0.293217,-0.270756,-19.786569,-64.09848,13.629619
1783986164.7963,16:42:44.796,18,false,0.279264,-0.481201,0.371094,0.743469,0.930556,-0.290776,-0.284916,-19.826681,-64.133738,13.507826
1783986164.8275,16:42:44.827,19,false,0.279312,-0.481079,0.371094,0.74353,0.92079,-0.306401,-0.274662,-19.773058,-64.120608,13.532797
1783986164.8586,16:42:44.858,20,false,0.278881,-0.48114,0.370972,0.743713,0.929091,-0.308843,-0.266361,-19.709844,-63.974207,13.345917
1783986164.8898,16:42:44.889,21,false,0.278938,-0.481201,0.37085,0.743713,0.935439,-0.2981,-0.267338,-19.667905,-63.902261,13.387079
1783986164.9209,16:42:44.920,22,false,0.278482,-0.481323,0.370667,0.743896,0.916884,-0.293217,-0.262455,-19.689976,-63.807602,13.28954
1783986164.952,16:42:44.952,23,false,0.2784,-0.481323,0.370483,0.744019,0.917861,-0.282475,-0.26978,-19.694885,-63.827086,13.186801
1783986164.9832,16:42:44.983,24,false,0.278423,-0.481262,0.3703,0.744141,0.92958,-0.288823,-0.280034,-19.729211,-63.724991,13.199013
1783986165.0145,16:42:45.014,25,false,0.278234,-0.481323,0.370117,0.744263,0.925673,-0.288334,-0.26685,-19.70029,-63.648059,13.12028
1783986165.0459,16:42:45.045,26,false,0.278095,-0.481262,0.370178,0.744324,0.923232,-0.300053,-0.262455,-19.629398,-63.683497,13.184006
1783986165.0772,16:42:45.077,27,false,0.278332,-0.481079,0.370361,0.744263,0.936904,-0.297612,-0.267338,-19.670273,-63.640623,13.346035
1783986165.1085,16:42:45.108,28,false,0.278168,-0.481079,0.370361,0.744324,0.929091,-0.292241,-0.26392,-19.751922,-63.602035,13.312416
1783986165.1399,16:42:45.139,29,false,0.27811,-0.481018,0.370361,0.744385,0.922744,-0.296635,-0.26392,-19.795499,-63.507491,13.32702
1783986165.171,16:42:45.171,30,false,0.277923,-0.481079,0.3703,0.744446,0.92372,-0.297612,-0.273198,-19.730041,-63.452309,13.310256
1783986165.2022,16:42:45.202,31,false,0.278135,-0.480957,0.370422,0.744385,0.918349,-0.290776,-0.267826,-19.730944,-63.462461,13.280215
1783986165.2333,16:42:45.233,0,false,0.278101,-0.480835,0.370483,0.744446,0.92958,-0.290776,-0.279057,-19.776618,-63.606182,13.193362
1783986165.2644,16:42:45.264,1,false,0.278279,-0.480591,0.370667,0.744446,0.918837,-0.2981,-0.26099,-19.802771,-63.571039,13.249779
1783986165.2956,16:42:45.295,2,false,0.278327,-0.480469,0.370789,0.744446,0.916884,-0.289311,-0.267826,-19.901078,-63.718856,13.330462
1783986165.3267,16:42:45.326,3,false,0.278188,-0.480408,0.37085,0.744507,0.92665,-0.2981,-0.270268,-20.034415,-63.851891,13.223631
1783986165.3579,16:42:45.357,4,false,0.278317,-0.480286,0.370911,0.744507,0.928603,-0.288823,-0.253178,-19.960019,-63.792177,13.411606
1783986165.389,16:42:45.389,5,false,0.278576,-0.480042,0.371155,0.744446,0.919814,-0.290288,-0.269291,-19.967832,-63.99265,13.401337
1783986165.4203,16:42:45.420,6,false,0.278249,-0.480042,0.371033,0.744629,0.921279,-0.296147,-0.275151,-20.019725,-63.948767,13.392096
1783986165.4517,16:42:45.451,7,false,0.27845,-0.479736,0.371277,0.744629,0.918837,-0.294194,-0.281987,-19.961752,-63.894319,13.294055
1783986165.483,16:42:45.483,8,false,0.278497,-0.479614,0.371277,0.74469,0.942763,-0.293706,-0.282475,-19.879669,-63.875224,13.25068
1783986165.5144,16:42:45.514,9,false,0.278497,-0.479614,0.371277,0.74469,0.923232,-0.292241,-0.258549,-19.895517,-63.843084,13.226596
1783986165.5457,16:42:45.545,10,false,0.278884,-0.479248,0.371704,0.744568,0.949599,-0.303471,-0.282963,-19.894826,-63.978651,13.249782
1783986165.5769,16:42:45.576,11,false,0.278686,-0.479126,0.371765,0.74469,0.923232,-0.293217,-0.269291,-19.75962,-64.115614,13.151019
1783986165.608,16:42:45.608,12,false,0.278733,-0.479004,0.371887,0.74469,0.92079,-0.297612,-0.271733,-19.727657,-64.074389,13.121947
1783986165.6391,16:42:45.639,13,false,0.278359,-0.479126,0.371643,0.744873,0.922255,-0.284916,-0.26978,-19.803568,-64.067195,13.140645
1783986165.6703,16:42:45.670,14,false,0.278149,-0.479248,0.371521,0.744934,0.921767,-0.28687,-0.267826,-19.827026,-64.165396,13.082703
1783986165.7014,16:42:45.701,15,false,0.278325,-0.479004,0.371704,0.744934,0.925185,-0.2981,-0.280034,-19.848138,-63.999562,13.210001
1783986165.7326,16:42:45.732,16,false,0.27864,-0.478821,0.371826,0.744873,0.928115,-0.290288,-0.282963,-19.732554,-64.164342,13.175031
1783986165.7639,16:42:45.763,17,false,0.27871,-0.478638,0.372009,0.744873,0.92958,-0.286381,-0.272221,-19.778067,-64.163106,13.248236
1783986165.7952,16:42:45.795,18,false,0.278943,-0.478455,0.372192,0.744812,0.92958,-0.28687,-0.267826,-19.848937,-64.14704,13.299165
1783986165.8266,16:42:45.826,19,false,0.279071,-0.478333,0.372253,0.744812,0.931044,-0.292729,-0.269291,-19.83795,-64.192395,13.345002
1783986165.8579,16:42:45.857,20,false,0.278803,-0.478394,0.372131,0.744934,0.916884,-0.28687,-0.26392,-19.85797,-64.098631,13.311486
1783986165.8893,16:42:45.889,21,false,0.27864,-0.478394,0.372131,0.744995,0.928603,-0.290288,-0.276127,-19.875988,-64.04415,13.415906
1783986165.9204,16:42:45.920,22,false,0.27864,-0.478394,0.372131,0.744995,0.919814,-0.281498,-0.266361,-19.757619,-64.15961,13.360346
1783986165.9515,16:42:45.951,23,false,0.278558,-0.478394,0.37207,0.745056,0.930068,-0.292241,-0.26978,-19.651087,-64.113986,13.310342
1783986165.9827,16:42:45.982,24,false,0.278523,-0.478271,0.372131,0.745117,0.923232,-0.30396,-0.270268,-19.67484,-64.192554,13.220477
1783986166.0138,16:42:46.013,25,false,0.278441,-0.478271,0.37207,0.745178,0.933974,-0.289799,-0.273686,-19.606494,-64.024004,13.124644
1783986166.045,16:42:46.045,26,false,0.278277,-0.478271,0.371948,0.7453,0.921767,-0.296635,-0.275151,-19.69452,-64.126525,13.143071
1783986166.0761,16:42:46.076,27,false,0.278569,-0.478149,0.372009,0.745239,0.918349,-0.296147,-0.272709,-19.713929,-64.233747,13.144702
1783986166.1072,16:42:46.107,28,false,0.278569,-0.478149,0.372009,0.745239,0.923232,-0.291264,-0.266361,-19.641674,-64.210617,13.205985
1783986166.1384,16:42:46.138,29,false,0.278697,-0.478027,0.37207,0.745239,0.919814,-0.300053,-0.273686,-19.741137,-64.279522,13.201325
1783986166.1697,16:42:46.169,30,false,0.27837,-0.478027,0.37207,0.745361,0.917372,-0.296635,-0.264897,-19.770838,-64.251814,13.0775
1783986166.2011,16:42:46.201,31,false,0.278557,-0.477966,0.372009,0.745361,0.928603,-0.298589,-0.270756,-19.782615,-64.241831,13.085688
1783986166.2324,16:42:46.232,0,false,0.278498,-0.477905,0.372131,0.745361,0.924208,-0.295171,-0.273198,-19.823122,-64.262753,13.167826
1783986166.2637,16:42:46.263,1,false,0.278393,-0.477966,0.372009,0.745422,0.935439,-0.289799,-0.282963,-19.829671,-64.251676,13.196889
1783986166.2951,16:42:46.295,2,false,0.278206,-0.478027,0.371826,0.745544,0.918349,-0.295659,-0.275639,-19.790703,-64.196845,13.223046
1783986166.3262,16:42:46.326,3,false,0.27817,-0.477905,0.371765,0.745667,0.925673,-0.28687,-0.279057,-19.890217,-64.027866,13.231633
1783986166.3576,16:42:46.357,4,false,0.277714,-0.478027,0.371582,0.74585,0.92958,-0.289799,-0.278569,-19.755471,-64.025324,13.134685
1783986166.3887,16:42:46.388,5,false,0.277632,-0.478027,0.371643,0.74585,0.929091,-0.288823,-0.268315,-19.828601,-63.873497,13.19697
1783986166.4198,16:42:46.419,6,false,0.277714,-0.478027,0.371704,0.745789,0.92372,-0.275639,-0.274662,-20.133678,-63.931253,13.193211
1783986166.451,16:42:46.451,7,false,0.277667,-0.478149,0.37146,0.74585,0.929091,-0.283452,-0.271733,-20.06431,-63.878556,13.189828
1783986166.4821,16:42:46.482,8,false,0.277455,-0.478271,0.371216,0.745972,0.924697,-0.285893,-0.281498,-20.121509,-63.980668,13.186783
1783986166.5133,16:42:46.513,9,false,0.277501,-0.478149,0.371094,0.746094,0.945205,-0.280034,-0.281498,-20.083265,-63.982845,13.09432
1783986166.5446,16:42:46.544,10,false,0.277124,-0.478271,0.37085,0.746277,0.92079,-0.294682,-0.276127,-19.929215,-63.939943,12.981195
1783986166.5759,16:42:46.575,11,false,0.277041,-0.478271,0.370789,0.746338,0.917861,-0.294194,-0.272221,-19.835431,-63.946193,12.939198
1783986166.6073,16:42:46.607,12,false,0.277147,-0.47821,0.370789,0.746338,0.926162,-0.292241,-0.272221,-19.840749,-63.99668,13.065894
1783986166.6386,16:42:46.638,13,false,0.277253,-0.478149,0.370911,0.746277,0.928115,-0.302007,-0.273198,-19.770766,-63.93744,13.150011
1783986166.67,16:42:46.670,14,false,0.277089,-0.478149,0.370911,0.746338,0.928115,-0.293217,-0.266361,-19.737689,-63.914033,13.076179
1783986166.7011,16:42:46.701,15,false,0.276877,-0.478271,0.370789,0.746399,0.929091,-0.286381,-0.275639,-19.707919,-63.937828,13.114407
1783986166.7322,16:42:46.732,16,false,0.276607,-0.478333,0.370789,0.74646,0.925185,-0.297612,-0.269291,-19.740942,-63.944289,13.17872
1783986166.7634,16:42:46.763,17,false,0.276795,-0.478271,0.37085,0.746399,0.932998,-0.292241,-0.271733,-19.636078,-64.039827,13.072109
1783986166.7945,16:42:46.794,18,false,0.276925,-0.478149,0.371033,0.746338,0.920302,-0.300542,-0.274174,-19.646377,-64.140766,13.140651
1783986166.8257,16:42:46.825,19,false,0.276866,-0.478088,0.371033,0.746399,0.916396,-0.284428,-0.277592,-19.655647,-64.007302,13.262155
1783986166.8568,16:42:46.856,20,false,0.276865,-0.478088,0.370911,0.74646,0.921279,-0.293706,-0.274662,-19.738758,-63.887186,13.162155
1783986166.888,16:42:46.888,21,false,0.276547,-0.478271,0.370667,0.746582,0.928603,-0.294682,-0.275639,-19.678974,-63.838896,13.311416
1783986166.9193,16:42:46.919,22,false,0.276735,-0.47821,0.370728,0.746521,0.92372,-0.281987,-0.279545,-19.684984,-63.85525,13.356027
1783986166.9506,16:42:46.950,23,false,0.276759,-0.478149,0.370789,0.746521,0.927138,-0.293217,-0.279057,-19.795069,-63.869969,13.396178
1783986166.982,16:42:46.982,24,false,0.276652,-0.47821,0.370667,0.746582,0.92958,-0.292241,-0.272709,-19.834331,-63.853309,13.342591
1783986167.0133,16:42:47.013,25,false,0.276535,-0.478088,0.370789,0.746643,0.926162,-0.307378,-0.26685,-19.929482,-63.89813,13.339223
1783986167.0447,16:42:47.044,26,false,0.277064,-0.477783,0.371033,0.746521,0.938369,-0.285405,-0.284428,-19.805764,-63.803884,13.321239
1783986167.0759,16:42:47.075,27,false,0.276957,-0.477844,0.370911,0.746582,0.919814,-0.290288,-0.267338,-19.888818,-63.689155,13.200376
1783986167.1072,16:42:47.107,28,false,0.276851,-0.477905,0.370789,0.746643,0.927138,-0.295171,-0.273198,-19.903751,-63.675622,13.256092
