Timestamp,Local time,Counter,Interpolated,Accelerometer X,Accelerometer Y,Accelerometer Z,Magnetometer X,Magnetometer Y,Magnetometer Z,Quaternion 0,Quaternion 1,Quaternion 2,Quaternion 3
1783962837.4459,10:13:57.445,16,false,0.693417,-0.063721,0.001099,0.717712,0.092775,0.094728,-1.012711,1.253599,-38.622853,-4.434294
1783962837.4771,10:13:57.477,17,false,0.693354,-0.063721,0.001038,0.717773,0.09424,0.085451,-1.019059,1.277777,-38.648566,-4.514249
1783962837.5082,10:13:57.508,18,false,0.693675,-0.06366,0.001099,0.717468,0.093751,0.086915,-1.006363,1.15,-38.671709,-4.481532
1783962837.5393,10:13:57.539,19,false,0.693802,-0.06366,0.001099,0.717346,0.090333,0.089845,-1.008804,1.124723,-38.737398,-4.616578
1783962837.5705,10:13:57.570,20,false,0.693739,-0.06366,0.001099,0.717407,0.093263,0.09424,-1.012711,1.101973,-38.721749,-4.558674
1783962837.6016,10:13:57.601,21,false,0.693607,-0.063721,0.001038,0.717529,0.093751,0.090822,-1.015152,1.231038,-38.707665,-4.536468
1783962837.6329,10:13:57.632,22,false,0.693417,-0.063721,0.001038,0.717712,0.085451,0.092287,-1.013687,1.332241,-38.724898,-4.576298
1783962837.6643,10:13:57.664,23,false,0.693549,-0.06366,0.001038,0.71759,0.101564,0.086427,-1.009781,1.348556,-38.740407,-4.612145
1783962837.6956,10:13:57.695,24,false,0.693428,-0.063599,0.001099,0.717712,0.097169,0.084474,-1.014176,1.228654,-38.61978,-4.524777
1783962837.727,10:13:57.727,25,false,0.693744,-0.063599,0.001099,0.717407,0.082521,0.085939,-1.009781,1.225419,-38.690663,-4.550822
1783962837.7583,10:13:57.758,26,false,0.693612,-0.06366,0.001099,0.717529,0.098634,0.107912,-1.022477,1.132785,-38.709595,-4.663986
1783962837.7897,10:13:57.789,27,false,0.693675,-0.06366,0.001038,0.717468,0.095705,0.100099,-1.011734,1.139137,-38.517281,-4.631249
1783962837.821,10:13:57.821,28,false,0.693664,-0.063782,0.001038,0.717468,0.086427,0.082033,-1.016129,1.070085,-38.568505,-4.676554
1783962837.8523,10:13:57.852,29,false,0.693796,-0.063721,0.00116,0.717346,0.095705,0.085451,-1.01857,1.037846,-38.659469,-4.597699
1783962837.8837,10:13:57.883,30,false,0.693928,-0.06366,0.00116,0.717224,0.092287,0.090822,-1.0215,1.00883,-38.606751,-4.661313
1783962837.915,10:13:57.915,31,false,0.693991,-0.06366,0.001221,0.717163,0.101076,0.09131,-1.013687,0.952809,-38.57426,-4.598936
1783962837.9464,10:13:57.946,0,false,0.694059,-0.063599,0.001221,0.717102,0.097169,0.084962,-1.025895,0.962205,-38.739417,-4.48298
1783962837.9777,10:13:57.977,1,false,0.694248,-0.063599,0.001282,0.716919,0.096681,0.082521,-1.020523,0.985615,-38.693659,-4.468344
1783962838.009,10:13:58.009,2,false,0.694117,-0.06366,0.001221,0.717041,0.099123,0.089845,-1.02443,1.036592,-38.742199,-4.440217
1783962838.0401,10:13:58.040,3,false,0.694117,-0.06366,0.001221,0.717041,0.095216,0.087404,-1.010269,1.022656,-38.92047,-4.250411
1783962838.0712,10:13:58.071,4,false,0.693991,-0.06366,0.00116,0.717163,0.099611,0.093751,-1.016129,1.099836,-38.916422,-4.288939
1783962838.1024,10:13:58.102,5,false,0.693727,-0.063782,0.00116,0.717407,0.104982,0.101564,-1.015152,1.064622,-38.942686,-4.428291
1783962838.1335,10:13:58.133,6,false,0.693916,-0.063782,0.001282,0.717224,0.100099,0.072267,-1.011246,0.95816,-38.861647,-4.404168
1783962838.1647,10:13:58.164,7,false,0.694231,-0.063782,0.001343,0.716919,0.089845,0.086427,-1.014664,0.907205,-38.833574,-4.442275
1783962838.1958,10:13:58.195,8,false,0.694358,-0.063782,0.001282,0.716797,0.092287,0.095705,-1.018082,0.861346,-38.733538,-4.371894
1783962838.2269,10:13:58.226,9,false,0.694489,-0.063721,0.001282,0.716675,0.095216,0.085451,-1.012711,0.864935,-38.763137,-4.30855
1783962838.2581,10:13:58.258,10,false,0.694741,-0.063721,0.001343,0.716431,0.098634,0.096193,-1.010269,0.763487,-38.715007,-4.20668
1783962838.2892,10:13:58.289,11,false,0.694672,-0.063782,0.001343,0.716492,0.100587,0.086427,-1.011246,0.806769,-38.821228,-4.264535
1783962838.3204,10:13:58.320,12,false,0.694798,-0.063782,0.001343,0.71637,0.095705,0.087892,-1.018082,0.875631,-38.752335,-4.226881
1783962838.3515,10:13:58.351,13,false,0.694804,-0.063721,0.001282,0.71637,0.089357,0.08838,-1.0215,0.877791,-38.929592,-4.282716
1783962838.3828,10:13:58.382,14,false,0.694804,-0.063721,0.001282,0.71637,0.084962,0.089357,-1.014664,1.014319,-38.805001,-4.198383
1783962838.4142,10:13:58.414,15,false,0.694804,-0.063721,0.001282,0.71637,0.086915,0.09424,-1.022965,1.00261,-38.752684,-4.152391
1783962838.4455,10:13:58.445,16,false,0.694741,-0.063721,0.001221,0.716431,0.092287,0.092287,-1.006851,1.051888,-38.765415,-4.230628
1783962838.4769,10:13:58.476,17,false,0.694489,-0.063721,0.001221,0.716675,0.085939,0.099123,-1.019547,0.976607,-38.776872,-4.301042
1783962838.5082,10:13:58.508,18,false,0.694741,-0.063721,0.00116,0.716431,0.089357,0.083986,-1.011246,0.849038,-38.712414,-4.334507
1783962838.5396,10:13:58.539,19,false,0.694615,-0.063721,0.001221,0.716553,0.095705,0.084962,-1.022477,0.764135,-38.729172,-4.244995
1783962838.5709,10:13:58.570,20,false,0.694861,-0.063782,0.001221,0.716309,0.09424,0.091798,-1.012222,0.672767,-38.714346,-4.224249
1783962838.6022,10:13:58.602,21,false,0.69505,-0.063782,0.001221,0.716125,0.086427,0.093751,-1.013687,0.755029,-38.73091,-4.37007
1783962838.6336,10:13:58.633,22,false,0.694861,-0.063782,0.001282,0.716309,0.092775,0.082521,-1.021012,0.724388,-38.71591,-4.262048
1783962838.6649,10:13:58.664,23,false,0.69505,-0.063782,0.001282,0.716125,0.101076,0.078614,-1.007828,0.651949,-38.687456,-4.299412
1783962838.6962,10:13:58.696,24,false,0.694981,-0.063843,0.001343,0.716187,0.096193,0.068849,-1.011246,0.736292,-38.766525,-4.258271
1783962838.7273,10:13:58.727,25,false,0.69537,-0.063721,0.001465,0.71582,0.085451,0.080079,-1.017594,0.662663,-38.777871,-4.32592
1783962838.7586,10:13:58.758,26,false,0.69537,-0.063721,0.001404,0.71582,0.093751,0.097658,-1.013687,0.68612,-38.548821,-4.32699
1783962838.7898,10:13:58.789,27,false,0.695564,-0.06366,0.001465,0.715637,0.088869,0.087892,-1.014664,0.632462,-38.626799,-4.268137
1783962838.8209,10:13:58.820,28,false,0.695558,-0.063721,0.001404,0.715637,0.091798,0.094728,-1.011246,0.808477,-38.517534,-4.215169
1783962838.8521,10:13:58.852,29,false,0.695176,-0.063782,0.001404,0.716003,0.104494,0.096681,-1.010758,0.922029,-38.523871,-4.197406
1783962838.8832,10:13:58.883,30,false,0.694855,-0.063843,0.001404,0.716309,0.089845,0.085939,-1.019547,0.919549,-38.529575,-4.360865
1783962838.9143,10:13:58.914,31,false,0.695107,-0.063843,0.001404,0.716064,0.092287,0.089845,-1.009781,0.827594,-38.669294,-4.418255
1783962838.9455,10:13:58.945,0,false,0.695244,-0.063721,0.001404,0.715942,0.097658,0.089845,-1.0215,0.744835,-38.645501,-4.290461
1783962838.9766,10:13:58.976,1,false,0.695307,-0.063721,0.001404,0.715881,0.086427,0.096681,-1.019059,0.760075,-38.534365,-4.339937
1783962839.0078,10:13:59.007,2,false,0.694798,-0.063782,0.001343,0.71637,0.089357,0.102541,-1.014176,0.788744,-38.568928,-4.369513
1783962839.0389,10:13:59.038,3,false,0.694735,-0.063782,0.001282,0.716431,0.092775,0.101076,-1.019547,0.859408,-38.555172,-4.426038
1783962839.07,10:13:59.070,4,false,0.694735,-0.063782,0.001282,0.716431,0.104982,0.079591,-1.014664,0.937959,-38.453069,-4.207742
1783962839.1012,10:13:59.101,5,false,0.694867,-0.063721,0.001282,0.716309,0.089357,0.07715,-1.016617,0.874071,-38.525669,-4.280445
1783962839.1323,10:13:59.132,6,false,0.695056,-0.063721,0.001282,0.716125,0.089845,0.08838,-1.013199,0.936202,-38.561101,-4.450554
1783962839.1637,10:13:59.163,7,false,0.695056,-0.063721,0.001343,0.716125,0.092287,0.080568,-1.017594,0.917351,-38.473359,-4.424206
1783962839.195,10:13:59.195,8,false,0.69493,-0.063721,0.001282,0.716248,0.091798,0.106447,-1.016617,0.855524,-38.46916,-4.400493
1783962839.2263,10:13:59.226,9,false,0.695181,-0.063721,0.001282,0.716003,0.090822,0.096681,-1.01564,0.814833,-38.674735,-4.438967
1783962839.2577,10:13:59.257,10,false,0.695181,-0.063721,0.001282,0.716003,0.105959,0.076173,-1.01857,0.912796,-38.57563,-4.38387
1783962839.289,10:13:59.289,11,false,0.695187,-0.06366,0.001282,0.716003,0.079103,0.080568,-1.019547,0.83647,-38.54625,-4.319329
1783962839.3204,10:13:59.320,12,false,0.694878,-0.063599,0.001221,0.716309,0.083009,0.099611,-1.012711,0.917315,-38.594578,-4.365919
1783962839.3517,10:13:59.351,13,false,0.694752,-0.063599,0.001221,0.716431,0.092287,0.085451,-1.016129,0.990076,-38.563303,-4.333081
1783962839.3831,10:13:59.383,14,false,0.694501,-0.063599,0.001221,0.716675,0.087892,0.083009,-1.015152,1.010699,-38.565064,-4.273619
1783962839.4144,10:13:59.414,15,false,0.694627,-0.063599,0.00116,0.716553,0.097658,0.097658,-1.016617,0.939537,-38.476926,-4.339734
1783962839.4457,10:13:59.445,16,false,0.694569,-0.063538,0.001282,0.716614,0.092287,0.082033,-1.013687,0.935306,-38.412555,-4.309514
1783962839.4771,10:13:59.477,17,false,0.694569,-0.063538,0.001221,0.716614,0.093263,0.092287,-1.012222,0.961406,-38.399483,-4.386993
1783962839.5084,10:13:59.508,18,false,0.694563,-0.063599,0.001221,0.716614,0.106935,0.098146,-1.014664,0.940035,-38.402672,-4.51654
1783962839.5396,10:13:59.539,19,false,0.694558,-0.06366,0.00116,0.716614,0.096193,0.090333,-1.011734,1.025478,-38.405542,-4.558363
1783962839.5707,10:13:59.570,20,false,0.694243,-0.06366,0.001099,0.716919,0.08838,0.093751,-1.018082,1.027607,-38.482894,-4.596003
1783962839.6019,10:13:59.601,21,false,0.694558,-0.06366,0.001221,0.716614,0.096681,0.08838,-1.018082,0.924846,-38.402973,-4.62988
1783962839.633,10:13:59.633,22,false,0.694501,-0.063599,0.00116,0.716675,0.087404,0.083009,-1.003922,1.011808,-38.480582,-4.660368
1783962839.6641,10:13:59.664,23,false,0.694312,-0.063599,0.001221,0.716858,0.095216,0.092287,-1.008316,1.030258,-38.565384,-4.598085
1783962839.6953,10:13:59.695,24,false,0.693991,-0.06366,0.00116,0.717163,0.096681,0.093751,-1.015152,1.07677,-38.477214,-4.601846
1783962839.7264,10:13:59.726,25,false,0.693859,-0.063721,0.001221,0.717285,0.107424,0.099123,-1.022965,1.058816,-38.532445,-4.575323
1783962839.7575,10:13:59.757,26,false,0.694105,-0.063782,0.001343,0.717041,0.098146,0.092775,-1.017105,1.042658,-38.582153,-4.626221
1783962839.7887,10:13:59.788,27,false,0.694048,-0.063721,0.001221,0.717102,0.090822,0.081056,-1.024918,1.132792,-38.70166,-4.776706
1783962839.8198,10:13:59.819,28,false,0.694054,-0.06366,0.001282,0.717102,0.084962,0.079103,-1.014176,1.109236,-38.614816,-4.598113
1783962839.851,10:13:59.851,29,false,0.693927,-0.06366,0.001282,0.717224,0.097169,0.082033,-1.015152,1.073081,-38.596471,-4.48224
1783962839.8823,10:13:59.882,30,false,0.693991,-0.06366,0.001282,0.717163,0.098146,0.10547,-1.012711,1.07045,-38.579961,-4.377954
1783962839.9136,10:13:59.913,31,false,0.694117,-0.06366,0.001282,0.717041,0.101564,0.09424,-1.009781,1.038174,-38.609964,-4.433635
1783962839.945,10:13:59.945,0,false,0.693922,-0.063721,0.001221,0.717224,0.092775,0.081544,-1.019059,1.113803,-38.517336,-4.408979
1783962839.9763,10:13:59.976,1,false,0.694048,-0.063721,0.001221,0.717102,0.100587,0.090822,-1.016129,1.092146,-38.493786,-4.521374
1783962840.0077,10:14:00.007,2,false,0.693922,-0.063721,0.001221,0.717224,0.096681,0.086427,-1.014664,0.953023,-38.412775,-4.532805
1783962840.039,10:14:00.039,3,false,0.694054,-0.06366,0.001221,0.717102,0.086427,0.092287,-1.022477,0.93249,-38.309958,-4.573002
1783962840.0704,10:14:00.070,4,false,0.69418,-0.06366,0.001221,0.71698,0.104494,0.090822,-1.019547,0.91401,-38.396869,-4.683947
1783962840.1017,10:14:00.101,5,false,0.694306,-0.06366,0.00116,0.716858,0.091798,0.083497,-1.022965,0.927286,-38.549857,-4.679122
1783962840.133,10:14:00.133,6,false,0.694002,-0.063538,0.00116,0.717163,0.095216,0.086915,-1.011734,1.088773,-38.508101,-4.629917
1783962840.1644,10:14:00.164,7,false,0.693944,-0.063477,0.001221,0.717224,0.102541,0.07422,-1.012222,1.024757,-38.590151,-4.570679
1783962840.1957,10:14:00.195,8,false,0.694008,-0.063477,0.00116,0.717163,0.083986,0.078614,-1.003433,1.041912,-38.55932,-4.622042
1783962840.2269,10:14:00.226,9,false,0.694002,-0.063538,0.00116,0.717163,0.088869,0.097658,-1.010269,1.057352,-38.531571,-4.593499
1783962840.258,10:14:00.258,10,false,0.694008,-0.063477,0.00116,0.717163,0.093751,0.087404,-1.016129,1.056293,-38.59632,-4.597718
1783962840.2892,10:14:00.289,11,false,0.693881,-0.063477,0.001221,0.717285,0.099123,0.091798,-1.0215,1.040387,-38.564872,-4.571608
1783962840.3203,10:14:00.320,12,false,0.694007,-0.063477,0.001221,0.717163,0.089357,0.087892,-1.023453,1.026071,-38.611337,-4.518201
1783962840.3514,10:14:00.351,13,false,0.694007,-0.063477,0.001221,0.717163,0.087404,0.083497,-1.014176,1.043095,-38.757833,-4.500042
1783962840.3826,10:14:00.382,14,false,0.693755,-0.063477,0.001282,0.717407,0.09424,0.093263,-1.011246,1.118232,-38.725187,-4.468745
1783962840.4137,10:14:00.413,15,false,0.693881,-0.063477,0.001282,0.717285,0.09424,0.09424,-1.014176,0.991455,-38.755621,-4.455532
1783962840.4449,10:14:00.444,16,false,0.694128,-0.063538,0.001282,0.717041,0.100099,0.098146,-1.01857,0.892309,-38.872734,-4.578225
1783962840.476,10:14:00.476,17,false,0.694317,-0.063538,0.001282,0.716858,0.098146,0.076173,-1.021012,0.818032,-38.843552,-4.524156
1783962840.5071,10:14:00.507,18,false,0.694374,-0.063599,0.001343,0.716797,0.097658,0.087892,-1.01564,0.840906,-38.847196,-4.714756
1783962840.5383,10:14:00.538,19,false,0.694374,-0.063599,0.001404,0.716797,0.098146,0.084962,-1.017594,1.011031,-38.775706,-4.706849
1783962840.5694,10:14:00.569,20,false,0.693996,-0.063599,0.001404,0.717163,0.095705,0.084962,-1.009293,1.089374,-38.845949,-4.654872
1783962840.6006,10:14:00.600,21,false,0.694254,-0.063538,0.001404,0.716919,0.087892,0.090822,-1.00148,1.070159,-38.864307,-4.623046
1783962840.6317,10:14:00.631,22,false,0.694437,-0.063599,0.001404,0.716736,0.11133,0.088869,-1.012222,1.082774,-38.761198,-4.639264
1783962840.663,10:14:00.663,23,false,0.694128,-0.063538,0.001404,0.717041,0.102052,0.085939,-1.012711,1.079174,-38.578677,-4.668815
1783962840.6944,10:14:00.694,24,false,0.694317,-0.063538,0.001465,0.716858,0.099123,0.083009,-1.015152,1.016118,-38.548993,-4.575779
1783962840.7257,10:14:00.725,25,false,0.694254,-0.063538,0.001404,0.716919,0.089845,0.094728,-1.00734,0.959367,-38.552185,-4.521955
1783962840.7571,10:14:00.757,26,false,0.694563,-0.063599,0.001404,0.716614,0.095216,0.09131,-1.01564,0.908292,-38.629827,-4.548283
1783962840.7884,10:14:00.788,27,false,0.694632,-0.063538,0.001404,0.716553,0.095216,0.084474,-1.016129,0.847371,-38.609981,-4.512162
1783962840.8197,10:14:00.819,28,false,0.694632,-0.063538,0.001404,0.716553,0.098634,0.09424,-1.00441,0.837403,-38.666889,-4.479653
1783962840.8511,10:14:00.851,29,false,0.694632,-0.063538,0.001404,0.716553,0.092775,0.087404,-1.011246,1.007878,-38.748015,-4.525165
1783962840.8824,10:14:00.882,30,false,0.694122,-0.063599,0.001282,0.717041,0.09131,0.104494,-1.016617,1.011767,-38.611674,-4.491356
1783962840.9138,10:14:00.913,31,false,0.694122,-0.063599,0.001282,0.717041,0.086915,0.092775,-1.012222,1.10499,-38.653459,-4.520743
1783962840.9451,10:14:00.945,0,false,0.693996,-0.063599,0.001221,0.717163,0.085939,0.087892,-1.008804,1.039353,-38.765835,-4.472423
1783962840.9765,10:14:00.976,1,false,0.693933,-0.063599,0.00116,0.717224,0.098146,0.087892,-1.011246,1.129817,-38.672573,-4.458842
1783962841.0078,10:14:01.007,2,false,0.693807,-0.063599,0.00116,0.717346,0.091798,0.078126,-1.010269,1.031789,-38.588638,-4.49148
1783962841.0391,10:14:01.039,3,false,0.694059,-0.063599,0.00116,0.717102,0.091798,0.086915,-1.016129,1.048241,-38.513096,-4.446086
1783962841.0703,10:14:01.070,4,false,0.693933,-0.063599,0.00116,0.717224,0.09424,0.083986,-1.016129,0.988279,-38.519877,-4.405231
1783962841.1014,10:14:01.101,5,false,0.693681,-0.063599,0.00116,0.717468,0.090822,0.098146,-1.012222,1.053943,-38.496073,-4.443231
1783962841.1326,10:14:01.132,6,false,0.693428,-0.063599,0.001099,0.717712,0.082033,0.091798,-1.011246,1.038272,-38.579326,-4.432569
1783962841.1637,10:14:01.163,7,false,0.693313,-0.063477,0.001099,0.717834,0.101076,0.087404,-1.017594,0.934445,-38.609392,-4.378112
1783962841.1948,10:14:01.194,8,false,0.693313,-0.063477,0.001099,0.717834,0.095705,0.080568,-1.005386,1.0354,-38.681313,-4.448732
1783962841.226,10:14:01.226,9,false,0.693313,-0.063477,0.00116,0.717834,0.08838,0.08838,-1.014176,1.021583,-38.521735,-4.377705
1783962841.2571,10:14:01.257,10,false,0.693497,-0.063538,0.00116,0.717651,0.094728,0.09424,-1.016617,1.039056,-38.602421,-4.373595
1783962841.2883,10:14:01.288,11,false,0.693302,-0.063599,0.001099,0.717834,0.09424,0.09424,-1.021988,1.12955,-38.67504,-4.414759
1783962841.3194,10:14:01.319,12,false,0.693302,-0.063599,0.001099,0.717834,0.084474,0.086915,-1.017594,1.091364,-38.75535,-4.362083
1783962841.3505,10:14:01.350,13,false,0.693497,-0.063538,0.00116,0.717651,0.105959,0.083497,-1.021988,1.131766,-38.767814,-4.314674
1783962841.3817,10:14:01.381,14,false,0.693497,-0.063538,0.00116,0.717651,0.089357,0.083497,-1.022965,1.003636,-38.793985,-4.36173
1783962841.413,10:14:01.413,15,false,0.69356,-0.063538,0.001099,0.71759,0.092775,0.078614,-1.019059,1.007949,-38.757724,-4.389126
1783962841.4444,10:14:01.444,16,false,0.69375,-0.063538,0.00116,0.717407,0.090822,0.07129,-1.010758,0.996877,-38.710135,-4.353967
1783962841.4757,10:14:01.475,17,false,0.693692,-0.063477,0.001221,0.717468,0.097658,0.086915,-1.011734,1.046728,-38.757028,-4.232601
1783962841.507,10:14:01.507,18,false,0.693503,-0.063477,0.001221,0.717651,0.09131,0.098634,-1.020523,1.091593,-38.694554,-4.228049
1783962841.5384,10:14:01.538,19,false,0.693508,-0.063416,0.00116,0.717651,0.095216,0.08838,-1.00734,1.102065,-38.608421,-4.283767
1783962841.5697,10:14:01.569,20,false,0.693635,-0.063416,0.001099,0.717529,0.098634,0.08838,-1.005386,0.961951,-38.441178,-4.378774
1783962841.6011,10:14:01.601,21,false,0.693566,-0.063477,0.001221,0.71759,0.09131,0.079591,-1.010758,0.955479,-38.380382,-4.374558
1783962841.6324,10:14:01.632,22,false,0.693629,-0.063477,0.001221,0.717529,0.093751,0.09131,-1.008316,0.9347,-38.430342,-4.35581
1783962841.6638,10:14:01.663,23,false,0.693755,-0.063477,0.001282,0.717407,0.098146,0.096681,-1.008316,1.065538,-38.505215,-4.413706
1783962841.6951,10:14:01.695,24,false,0.693755,-0.063477,0.001221,0.717407,0.101076,0.090822,-1.013687,1.078615,-38.632415,-4.376089
1783962841.7264,10:14:01.726,25,false,0.693566,-0.063477,0.00116,0.71759,0.102052,0.087404,-1.005386,1.090384,-38.522588,-4.446911
1783962841.7578,10:14:01.757,26,false,0.693434,-0.063538,0.001221,0.717712,0.087404,0.082033,-1.014664,0.996299,-38.52842,-4.51065
1783962841.7891,10:14:01.789,27,false,0.69356,-0.063538,0.00116,0.71759,0.104005,0.083497,-1.016129,1.076115,-38.593484,-4.448385
1783962841.8203,10:14:01.820,28,false,0.69356,-0.063538,0.001221,0.71759,0.090333,0.092775,-1.013687,1.118042,-38.547366,-4.422254
1783962841.8514,10:14:01.851,29,false,0.693686,-0.063538,0.001221,0.717468,0.086915,0.089845,-1.008804,1.036146,-38.505859,-4.473505
1783962841.8826,10:14:01.882,30,false,0.694007,-0.063477,0.001282,0.717163,0.093263,0.087404,-1.014176,0.962439,-38.49841,-4.519632
1783962841.9137,10:14:01.913,31,false,0.694065,-0.063538,0.001282,0.717102,0.103029,0.083497,-1.014664,0.896103,-38.491706,-4.486376
1783962841.9448,10:14:01.944,0,false,0.694122,-0.063599,0.001221,0.717041,0.083497,0.091798,-1.014176,1.000892,-38.545488,-4.546169
1783962841.976,10:14:01.976,1,false,0.694059,-0.063599,0.001221,0.717102,0.095216,0.080568,-1.004898,0.930711,-38.578938,-4.585029
1783962842.0071,10:14:02.007,2,false,0.694002,-0.063538,0.001099,0.717163,0.085451,0.078126,-1.027848,0.987178,-38.564182,-4.590095
1783962842.0383,10:14:02.038,3,false,0.694071,-0.063477,0.001221,0.717102,0.097169,0.082521,-1.011734,0.918368,-38.550901,-4.65447
1783962842.0694,10:14:02.069,4,false,0.694139,-0.063416,0.001221,0.717041,0.098634,0.086915,-1.014664,0.9013,-38.538948,-4.607731
1783962842.1005,10:14:02.100,5,false,0.694323,-0.063477,0.001221,0.716858,0.088869,0.099611,-1.010269,0.990616,-38.60296,-4.640434
1783962842.1317,10:14:02.131,6,false,0.69438,-0.063538,0.001221,0.716797,0.102541,0.08838,-1.027848,1.011186,-38.675524,-4.684822
1783962842.163,10:14:02.163,7,false,0.694317,-0.063538,0.001221,0.716858,0.099123,0.086427,-1.015152,0.954929,-38.785693,-4.72477
1783962842.1944,10:14:02.194,8,false,0.694013,-0.063416,0.00116,0.717163,0.09131,0.083009,-1.004898,0.87439,-38.884846,-4.760724
1783962842.2257,10:14:02.225,9,false,0.694082,-0.063354,0.00116,0.717102,0.087892,0.093751,-1.014176,0.86172,-38.839499,-4.882805
1783962842.257,10:14:02.257,10,false,0.694265,-0.063416,0.00116,0.716919,0.093751,0.089845,-1.005875,0.805455,-38.873455,-4.858093
1783962842.2884,10:14:02.288,11,false,0.694071,-0.063477,0.001099,0.717102,0.096193,0.097169,-1.007828,0.874448,-38.933924,-4.686315
1783962842.3197,10:14:02.319,12,false,0.694265,-0.063416,0.00116,0.716919,0.087892,0.077638,-1.020523,0.816911,-38.808899,-4.681252
1783962842.3511,10:14:02.351,13,false,0.69458,-0.063416,0.00116,0.716614,0.088869,0.084962,-1.016129,0.780082,-38.756193,-4.616881
1783962842.3824,10:14:02.382,14,false,0.694643,-0.063416,0.00116,0.716553,0.09131,0.099611,-1.001968,0.776843,-38.693803,-4.618762
1783962842.4138,10:14:02.413,15,false,0.694706,-0.063416,0.001099,0.716492,0.093751,0.085451,-1.020035,0.788881,-38.652606,-4.590547
1783962842.4451,10:14:02.445,16,false,0.694575,-0.063477,0.00116,0.716614,0.093751,0.092287,-1.00441,0.829624,-38.615529,-4.535246
1783962842.4762,10:14:02.476,17,false,0.694506,-0.063538,0.001099,0.716675,0.103517,0.101564,-1.014664,0.791523,-38.656929,-4.410706
1783962842.5074,10:14:02.507,18,false,0.694443,-0.063538,0.00116,0.716736,0.094728,0.088869,-1.016617,0.832002,-38.649327,-4.29862
1783962842.5387,10:14:02.538,19,false,0.694254,-0.063538,0.001099,0.716919,0.084474,0.087892,-1.018082,0.838524,-38.687347,-4.302419
1783962842.5699,10:14:02.569,20,false,0.694134,-0.063477,0.00116,0.717041,0.098634,0.09131,-1.010269,0.874303,-38.646796,-4.305839
1783962842.601,10:14:02.601,21,false,0.694065,-0.063538,0.001099,0.717102,0.101076,0.10547,-1.011734,0.861642,-38.550484,-4.264055
1783962842.6321,10:14:02.632,22,false,0.693939,-0.063538,0.001099,0.717224,0.093751,0.091798,-1.015152,0.925016,-38.613342,-4.331126
1783962842.6633,10:14:02.663,23,false,0.69387,-0.063599,0.001038,0.717285,0.093751,0.09424,-1.004898,1.01196,-38.595145,-4.421398
1783962842.6944,10:14:02.694,24,false,0.69387,-0.063599,0.001038,0.717285,0.089357,0.09424,-1.012711,0.940672,-38.623629,-4.442827
1783962842.7256,10:14:02.725,25,false,0.694002,-0.063538,0.001099,0.717163,0.096681,0.082033,-1.029801,0.876513,-38.709081,-4.312575
1783962842.7567,10:14:02.756,26,false,0.693876,-0.063538,0.001099,0.717285,0.086915,0.084474,-1.014664,1.013169,-38.68131,-4.300025
1783962842.7878,10:14:02.787,27,false,0.693624,-0.063538,0.001038,0.717529,0.103029,0.087892,-1.015152,1.091298,-38.626408,-4.438269
1783962842.819,10:14:02.819,28,false,0.693687,-0.063538,0.001038,0.717468,0.096681,0.083009,-1.014664,1.206476,-38.651766,-4.383242
1783962842.8501,10:14:02.850,29,false,0.693555,-0.063599,0.000977,0.71759,0.093751,0.08838,-1.007828,1.280228,-38.644681,-4.378579
1783962842.8813,10:14:02.881,30,false,0.693428,-0.063599,0.001038,0.717712,0.098146,0.075196,-1.013199,1.226975,-38.728027,-4.359429
1783962842.9126,10:14:02.912,31,false,0.693618,-0.063599,0.001038,0.717529,0.085939,0.086915,-1.016129,1.149139,-38.713315,-4.476778
1783962842.9439,10:14:02.943,0,false,0.693555,-0.063599,0.001038,0.71759,0.100587,0.082033,-1.006363,1.183763,-38.655213,-4.447808
1783962842.9753,10:14:02.975,1,false,0.69387,-0.063599,0.001099,0.717285,0.086427,0.086427,-1.00441,1.110248,-38.692645,-4.406781
1783962843.0066,10:14:03.006,2,false,0.69406,-0.063599,0.001099,0.717102,0.086915,0.092287,-1.019547,1.073993,-38.63661,-4.429672
1783962843.038,10:14:03.038,3,false,0.694054,-0.06366,0.001099,0.717102,0.089845,0.088869,-1.015152,1.086224,-38.63104,-4.465227
1783962843.0693,10:14:03.069,4,false,0.693865,-0.06366,0.001038,0.717285,0.102541,0.092287,-1.012222,1.12714,-38.655935,-4.437412
1783962843.1007,10:14:03.100,5,false,0.693933,-0.063599,0.001099,0.717224,0.091798,0.087892,-1.008804,1.044334,-38.67834,-4.517055
1783962843.132,10:14:03.132,6,false,0.693933,-0.063599,0.001099,0.717224,0.09131,0.088869,-1.0215,1.044577,-38.474197,-4.45415
1783962843.1633,10:14:03.163,7,false,0.693744,-0.063599,0.001038,0.717407,0.087404,0.086427,-1.021988,1.05975,-38.484869,-4.517165
1783962843.1947,10:14:03.194,8,false,0.693618,-0.063599,0.001038,0.717529,0.096193,0.089845,-1.022965,1.073406,-38.539334,-4.648649
1783962843.226,10:14:03.226,9,false,0.693549,-0.06366,0.000977,0.71759,0.090333,0.094728,-1.010269,1.145512,-38.5734,-4.527722
1783962843.2574,10:14:03.257,10,false,0.693624,-0.063538,0.001038,0.717529,0.090333,0.083986,-1.014664,1.075822,-38.499382,-4.478704
1783962843.2887,10:14:03.288,11,false,0.693623,-0.063538,0.001099,0.717529,0.091798,0.080079,-1.004898,1.207501,-38.582304,-4.32991
1783962843.3199,10:14:03.319,12,false,0.693566,-0.063477,0.001099,0.71759,0.100099,0.085451,-1.01564,1.251243,-38.507395,-4.300673
1783962843.351,10:14:03.351,13,false,0.693365,-0.063599,0.00116,0.717773,0.095216,0.092775,-1.012222,1.275657,-38.649331,-4.214544
1783962843.3821,10:14:03.382,14,false,0.693233,-0.06366,0.001099,0.717896,0.097169,0.088869,-1.014664,1.252769,-38.702305,-4.286566
1783962843.4133,10:14:03.413,15,false,0.693107,-0.06366,0.001099,0.718018,0.097658,0.085939,-1.02443,1.351799,-38.720073,-4.321479
1783962843.4444,10:14:03.444,16,false,0.692991,-0.063538,0.00116,0.71814,0.089845,0.075685,-1.014664,1.231573,-38.706157,-4.293085
1783962843.4756,10:14:03.475,17,false,0.692876,-0.063416,0.00116,0.718262,0.096681,0.097658,-1.016617,1.272908,-38.813263,-4.297438
1783962843.5067,10:14:03.506,18,false,0.692554,-0.063477,0.001099,0.718567,0.101076,0.095216,-1.012711,1.414787,-38.834889,-4.271447
1783962843.5378,10:14:03.537,19,false,0.692358,-0.063538,0.001099,0.71875,0.097658,0.098146,-1.011734,1.377985,-38.839399,-4.487318
1783962843.569,10:14:03.569,20,false,0.69248,-0.063599,0.001038,0.718628,0.096681,0.092775,-1.014664,1.419632,-38.843458,-4.532063
1783962843.6001,10:14:03.600,21,false,0.692606,-0.063599,0.001038,0.718506,0.093751,0.092775,-1.014176,1.442161,-38.742434,-4.512518
1783962843.6313,10:14:03.631,22,false,0.692939,-0.063416,0.001099,0.718201,0.085451,0.071778,-1.013199,1.297945,-38.636559,-4.65942
1783962843.6624,10:14:03.662,23,false,0.692939,-0.063416,0.00116,0.718201,0.090822,0.087404,-1.027848,1.287781,-38.630994,-4.672001
1783962843.6937,10:14:03.693,24,false,0.693066,-0.063416,0.001221,0.718079,0.090333,0.097169,-1.014664,1.278634,-38.596078,-4.638462
1783962843.7251,10:14:03.725,25,false,0.693118,-0.063538,0.00116,0.718018,0.102052,0.101076,-1.004898,1.255448,-38.624469,-4.458739
1783962843.7564,10:14:03.756,26,false,0.693112,-0.063599,0.001099,0.718018,0.097169,0.082033,-1.013199,1.219626,-38.620113,-4.566157
1783962843.7878,10:14:03.787,27,false,0.693244,-0.063538,0.00116,0.717896,0.090822,0.073243,-1.009293,1.20234,-38.750778,-4.573111
1783962843.8191,10:14:03.819,28,false,0.69306,-0.063477,0.00116,0.718079,0.090333,0.080079,-1.012222,1.306414,-38.718837,-4.579369
1783962843.8504,10:14:03.850,29,false,0.693192,-0.063416,0.00116,0.717957,0.104494,0.099611,-1.013687,1.265495,-38.630275,-4.525185
1783962843.8818,10:14:03.881,30,false,0.693439,-0.063477,0.001221,0.717712,0.100099,0.091798,-1.015152,1.288484,-38.535616,-4.491374
1783962843.9131,10:14:03.913,31,false,0.693175,-0.063599,0.001221,0.717957,0.093263,0.096681,-1.00734,1.383943,-38.570053,-4.565621
1783962843.9445,10:14:03.944,0,false,0.692986,-0.063599,0.00116,0.71814,0.091798,0.073732,-1.01564,1.320318,-38.660862,-4.572628
1783962843.9758,10:14:03.975,1,false,0.692796,-0.063599,0.00116,0.718323,0.097169,0.077638,-1.015152,1.442502,-38.682774,-4.758381
1783962844.007,10:14:04.007,2,false,0.692934,-0.063477,0.001221,0.718201,0.093263,0.092287,-1.012711,1.462744,-38.672588,-4.790973
1783962844.0381,10:14:04.038,3,false,0.693118,-0.063538,0.001221,0.718018,0.096681,0.087404,-1.008316,1.421146,-38.573697,-4.730584
1783962844.0692,10:14:04.069,4,false,0.693175,-0.063599,0.001221,0.717957,0.096681,0.084474,-1.019547,1.398662,-38.499649,-4.736048
1783962844.1004,10:14:04.100,5,false,0.693359,-0.06366,0.001221,0.717773,0.09131,0.098146,-1.014176,1.438242,-38.492822,-4.651243
1783962844.1315,10:14:04.131,6,false,0.693296,-0.06366,0.001221,0.717834,0.094728,0.09131,-1.024918,1.399095,-38.561446,-4.50015
1783962844.1627,10:14:04.162,7,false,0.692991,-0.063538,0.001221,0.71814,0.089357,0.085939,-1.01564,1.498447,-38.533485,-4.528657
1783962844.1938,10:14:04.193,8,false,0.69287,-0.063477,0.001221,0.718262,0.088869,0.081056,-1.016129,1.528048,-38.523274,-4.599176
1783962844.2249,10:14:04.224,9,false,0.692364,-0.063477,0.001099,0.71875,0.09131,0.089357,-1.013199,1.524782,-38.409407,-4.632735
1783962844.2561,10:14:04.256,10,false,0.692358,-0.063538,0.001099,0.71875,0.09424,0.091798,-1.011734,1.447073,-38.456465,-4.588169
1783962844.2872,10:14:04.287,11,false,0.692474,-0.06366,0.000977,0.718628,0.097658,0.093263,-1.013687,1.317319,-38.39414,-4.533106
1783962844.3184,10:14:04.318,12,false,0.692796,-0.063599,0.001038,0.718323,0.093263,0.080568,-1.013687,1.260357,-38.367956,-4.423734
1783962844.3495,10:14:04.349,13,false,0.692923,-0.063599,0.001099,0.718201,0.090822,0.091798,-1.017105,1.298813,-38.434113,-4.459883
1783962844.3806,10:14:04.380,14,false,0.692675,-0.063538,0.001038,0.718445,0.091798,0.096681,-1.006363,1.333424,-38.448793,-4.492418
1783962844.4118,10:14:04.411,15,false,0.692865,-0.063538,0.001038,0.718262,0.099611,0.089845,-1.014176,1.22999,-38.491912,-4.506745
1783962844.4431,10:14:04.443,16,false,0.692664,-0.06366,0.000977,0.718445,0.092775,0.093263,-1.01857,1.301391,-38.500812,-4.489732
1783962844.4745,10:14:04.474,17,false,0.692469,-0.063721,0.000916,0.718628,0.08838,0.089357,-1.012222,1.275928,-38.568637,-4.534236
1783962844.5058,10:14:04.505,18,false,0.692405,-0.063721,0.000916,0.718689,0.096193,0.092775,-1.014664,1.297874,-38.525003,-4.604197
1783962844.5371,10:14:04.537,19,false,0.69184,-0.06366,0.000977,0.719238,0.096681,0.081544,-1.013199,1.287717,-38.605363,-4.6223
1783962844.5685,10:14:04.568,20,false,0.692036,-0.063599,0.000977,0.719055,0.084474,0.085939,-1.017105,1.323438,-38.647779,-4.713362
1783962844.5998,10:14:04.599,21,false,0.692157,-0.06366,0.001038,0.718933,0.104494,0.092287,-1.00441,1.206048,-38.641093,-4.720549
1783962844.6312,10:14:04.631,22,false,0.692152,-0.063721,0.001038,0.718933,0.105959,0.089357,-1.017594,1.234981,-38.545351,-4.637294
1783962844.6625,10:14:04.662,23,false,0.692083,-0.063782,0.001038,0.718994,0.09424,0.085451,-1.011734,1.156345,-38.519,-4.54741
1783962844.6939,10:14:04.693,24,false,0.692152,-0.063721,0.001038,0.718933,0.093263,0.103029,-1.020035,1.130433,-38.570052,-4.645961
1783962844.7252,10:14:04.725,25,false,0.692215,-0.063721,0.001038,0.718872,0.086915,0.090822,-1.012222,1.107113,-38.496369,-4.585119
1783962844.7565,10:14:04.756,26,false,0.692785,-0.063721,0.001099,0.718323,0.109377,0.093751,-1.005386,1.160894,-38.624454,-4.530361
1783962844.7877,10:14:04.787,27,false,0.693101,-0.063721,0.001099,0.718018,0.09424,0.092775,-1.014664,1.149482,-38.650007,-4.496032
1783962844.8188,10:14:04.818,28,false,0.693412,-0.063782,0.001038,0.717712,0.097658,0.097658,-1.007828,1.049487,-38.643098,-4.450183
1783962844.85,10:14:04.850,29,false,0.693412,-0.063782,0.001038,0.717712,0.094728,0.085939,-1.022965,1.1838,-38.56211,-4.438826
1783962844.8811,10:14:04.881,30,false,0.693607,-0.063721,0.00116,0.717529,0.095705,0.075196,-1.023453,1.110282,-38.608851,-4.428605
1783962844.9122,10:14:04.912,31,false,0.693423,-0.06366,0.00116,0.717712,0.091798,0.091798,-1.019547,0.9843,-38.50138,-4.35959
1783962844.9434,10:14:04.943,0,false,0.693796,-0.063721,0.001221,0.717346,0.085939,0.100099,-1.016129,0.841008,-38.509334,-4.357293
1783962844.9745,10:14:04.974,1,false,0.693727,-0.063782,0.00116,0.717407,0.102541,0.082521,-1.003433,0.906446,-38.396861,-4.489809
1783962845.0057,10:14:05.005,2,false,0.693658,-0.063843,0.00116,0.717468,0.092775,0.099123,-1.021012,0.935432,-38.415266,-4.519351
1783962845.0368,10:14:05.036,3,false,0.69379,-0.063782,0.001099,0.717346,0.08838,0.083009,-1.019547,0.841889,-38.386969,-4.456216
1783962845.0679,10:14:05.067,4,false,0.693859,-0.063721,0.00116,0.717285,0.098634,0.079591,-1.010269,0.877331,-38.406363,-4.519025
1783962845.0991,10:14:05.099,5,false,0.693928,-0.06366,0.00116,0.717224,0.098146,0.104982,-1.008316,0.834459,-38.39391,-4.545646
1783962845.1302,10:14:05.130,6,false,0.694048,-0.063721,0.00116,0.717102,0.121096,0.086915,-1.008804,0.870644,-38.382702,-4.599512
1783962845.1614,10:14:05.161,7,false,0.694289,-0.063843,0.00116,0.716858,0.099611,0.086427,-1.003922,0.813487,-38.432431,-4.558268
1783962845.1927,10:14:05.192,8,false,0.694289,-0.063843,0.001099,0.716858,0.098634,0.092775,-1.011734,0.896631,-38.522048,-4.506195
1783962845.224,10:14:05.224,9,false,0.694352,-0.063843,0.001221,0.716797,0.098634,0.078614,-1.010269,0.881737,-38.617657,-4.474283
1783962845.2554,10:14:05.255,10,false,0.694232,-0.063782,0.001099,0.716919,0.097658,0.098146,-1.033219,0.958055,-38.688752,-4.610055
1783962845.2867,10:14:05.286,11,false,0.69379,-0.063782,0.00116,0.717346,0.099611,0.088869,-1.010269,1.05665,-38.603199,-4.732249
1783962845.3181,10:14:05.318,12,false,0.693595,-0.063843,0.00116,0.717529,0.099611,0.095705,-1.020523,1.070616,-38.571062,-4.692685
1783962845.3494,10:14:05.349,13,false,0.693475,-0.063782,0.001038,0.717651,0.090822,0.07715,-1.017105,1.113092,-38.527186,-4.746801
1783962845.3807,10:14:05.380,14,false,0.693475,-0.063782,0.001038,0.717651,0.089357,0.085451,-1.003433,1.046645,-38.532558,-4.645967
1783962845.4121,10:14:05.412,15,false,0.693475,-0.063782,0.001038,0.717651,0.084962,0.096681,-1.01857,1.046657,-38.627116,-4.674847
1783962845.4434,10:14:05.443,16,false,0.69317,-0.06366,0.001038,0.717957,0.089845,0.079591,-1.010269,1.09153,-38.577634,-4.670932
1783962845.4748,10:14:05.474,17,false,0.693423,-0.06366,0.001099,0.717712,0.095216,0.087404,-1.010269,1.027238,-38.577962,-4.757131
1783962845.5061,10:14:05.506,18,false,0.693118,-0.063538,0.001099,0.718018,0.084962,0.081056,-1.020035,1.17873,-38.488534,-4.849664
1783962845.5375,10:14:05.537,19,false,0.693181,-0.063538,0.001221,0.717957,0.098634,0.091798,-1.009781,1.180488,-38.497772,-4.768451
1783962845.5688,10:14:05.568,20,false,0.692991,-0.063538,0.001221,0.71814,0.095216,0.084474,-1.016617,1.077393,-38.431316,-4.770129
1783962845.5999,10:14:05.599,21,false,0.692991,-0.063538,0.001221,0.71814,0.100587,0.087892,-1.014176,0.894884,-38.476183,-4.756685
1783962845.6311,10:14:05.631,22,false,0.693181,-0.063538,0.001221,0.717957,0.087892,0.077638,-1.020523,0.925026,-38.531518,-4.834309
1783962845.6622,10:14:05.662,23,false,0.693566,-0.063477,0.001282,0.71759,0.083497,0.093751,-1.006851,0.862432,-38.62618,-4.874262
1783962845.6934,10:14:05.693,24,false,0.69356,-0.063538,0.001282,0.71759,0.11426,0.088869,-1.025406,0.970588,-38.546884,-4.895267
1783962845.7245,10:14:05.724,25,false,0.693376,-0.063477,0.001099,0.717773,0.083009,0.088869,-1.010758,0.903437,-38.460564,-4.79454
1783962845.7556,10:14:05.755,26,false,0.693371,-0.063538,0.001099,0.717773,0.101076,0.078614,-1.013199,0.977586,-38.442691,-4.868378
1783962845.7868,10:14:05.786,27,false,0.693376,-0.063477,0.001099,0.717773,0.085939,0.078614,-1.015152,0.909735,-38.36679,-4.875017
1783962845.8179,10:14:05.817,28,false,0.693388,-0.063354,0.001099,0.717773,0.101076,0.084474,-1.016617,1.08793,-38.433063,-4.791269
1783962845.8491,10:14:05.849,29,false,0.693261,-0.063354,0.00116,0.717896,0.08838,0.077638,-1.016129,1.128676,-38.432894,-4.835526
1783962845.8802,10:14:05.880,30,false,0.693324,-0.063354,0.001099,0.717834,0.089357,0.090822,-1.017594,0.985901,-38.477604,-4.845451
1783962845.9115,10:14:05.911,31,false,0.693382,-0.063416,0.00116,0.717773,0.089845,0.091798,-1.016617,1.006941,-38.532796,-4.794567
1783962845.9429,10:14:05.942,0,false,0.693571,-0.063416,0.001221,0.71759,0.100099,0.082033,-1.012222,0.981016,-38.522654,-4.778679
1783962845.9742,10:14:05.974,1,false,0.693445,-0.063416,0.001282,0.717712,0.098146,0.082033,-1.017594,1.047407,-38.423802,-4.854104
1783962846.0056,10:14:06.005,2,false,0.693376,-0.063477,0.001282,0.717773,0.09131,0.098634,-1.016129,1.062297,-38.514282,-4.921985
1783962846.0369,10:14:06.036,3,false,0.693066,-0.063416,0.001282,0.718079,0.092775,0.096681,-1.01564,0.985975,-38.550853,-4.848494
1783962846.0683,10:14:06.068,4,false,0.692997,-0.063477,0.001343,0.71814,0.101076,0.090333,-1.008804,1.05187,-38.47909,-4.842168
1783962846.0996,10:14:06.099,5,false,0.693065,-0.063416,0.001343,0.718079,0.098146,0.078614,-1.01857,0.946683,-38.474318,-4.776659
1783962846.1309,10:14:06.130,6,false,0.69306,-0.063477,0.001343,0.718079,0.083497,0.085451,-1.019547,1.046414,-38.335439,-4.627977
1783962846.1623,10:14:06.162,7,false,0.69306,-0.063477,0.001343,0.718079,0.107912,0.086427,-1.012711,1.016542,-38.315124,-4.688564
1783962846.1936,10:14:06.193,8,false,0.69337,-0.063538,0.001404,0.717773,0.084962,0.089357,-1.006851,0.989657,-38.296842,-4.683277
1783962846.225,10:14:06.225,9,false,0.693376,-0.063477,0.001404,0.717773,0.093263,0.078126,-1.02443,1.055184,-38.444879,-4.618703
1783962846.2563,10:14:06.256,10,false,0.693181,-0.063538,0.001343,0.717957,0.094728,0.085939,-1.007828,1.203881,-38.48839,-4.620402
1783962846.2875,10:14:06.287,11,false,0.692991,-0.063538,0.001343,0.71814,0.100099,0.075685,-1.020035,1.158262,-38.407919,-4.681746
1783962846.3186,10:14:06.318,12,false,0.692985,-0.063599,0.001343,0.71814,0.089845,0.08838,-1.016129,1.206928,-38.544849,-4.722002
1783962846.3497,10:14:06.349,13,false,0.692865,-0.063538,0.001282,0.718262,0.09131,0.083497,-1.016129,1.205866,-38.623224,-4.833001
1783962846.3809,10:14:06.380,14,false,0.692934,-0.063477,0.001282,0.718201,0.095705,0.084962,-1.020523,1.100233,-38.663855,-4.858132
1783962846.412,10:14:06.412,15,false,0.69306,-0.063477,0.001343,0.718079,0.095705,0.095705,-1.026871,1.139748,-38.715376,-4.835888
1783962846.4432,10:14:06.443,16,false,0.693123,-0.063477,0.001282,0.718018,0.097169,0.09131,-1.014664,1.115496,-38.701929,-4.726145
1783962846.4743,10:14:06.474,17,false,0.69325,-0.063477,0.001343,0.717896,0.097658,0.089357,-1.019547,1.183393,-38.749643,-4.64233
1783962846.5054,10:14:06.505,18,false,0.69337,-0.063538,0.001282,0.717773,0.098146,0.091798,-1.011246,1.0501,-38.807539,-4.686528
1783962846.5366,10:14:06.536,19,false,0.69337,-0.063538,0.001282,0.717773,0.095705,0.084962,-1.016617,1.049767,-38.769922,-4.74126
1783962846.5677,10:14:06.567,20,false,0.693307,-0.063538,0.001282,0.717834,0.101564,0.075685,-1.019547,1.019559,-38.780929,-4.730703
1783962846.5989,10:14:06.598,21,false,0.693244,-0.063538,0.001282,0.717896,0.088869,0.090822,-1.019059,0.917603,-38.925419,-4.67634
1783962846.63,10:14:06.630,22,false,0.693181,-0.063538,0.001282,0.717957,0.092775,0.09131,-1.022965,1.020243,-38.816199,-4.642367
1783962846.6611,10:14:06.661,23,false,0.693307,-0.063538,0.001343,0.717834,0.104494,0.080079,-1.010758,1.007942,-38.86744,-4.507115
1783962846.6925,10:14:06.692,24,false,0.693307,-0.063538,0.001404,0.717834,0.087404,0.090822,-1.008804,1.026778,-38.913556,-4.564834
1783962846.7238,10:14:06.723,25,false,0.693186,-0.063477,0.001343,0.717957,0.08838,0.099611,-1.012711,1.073639,-38.865338,-4.631735
1783962846.7552,10:14:06.755,26,false,0.693123,-0.063477,0.001282,0.718018,0.08838,0.079591,-1.014176,0.981229,-38.956526,-4.542408
1783962846.7865,10:14:06.786,27,false,0.692997,-0.063477,0.001282,0.71814,0.095216,0.097658,-1.01564,1.032644,-38.874103,-4.476967
1783962846.8179,10:14:06.817,28,false,0.692934,-0.063477,0.001282,0.718201,0.093263,0.080079,-1.013687,1.019103,-38.964414,-4.433024
1783962846.8492,10:14:06.849,29,false,0.692997,-0.063477,0.001221,0.71814,0.096681,0.098634,-1.022477,1.036823,-38.970925,-4.468244
1783962846.8805,10:14:06.880,30,false,0.69268,-0.063477,0.001282,0.718445,0.101564,0.09424,-1.022477,1.082679,-38.91697,-4.514897
1783962846.9119,10:14:06.911,31,false,0.692801,-0.063538,0.001282,0.718323,0.09424,0.090333,-1.017105,1.094042,-38.808595,-4.437253
1783962846.9432,10:14:06.943,0,false,0.692738,-0.063538,0.001282,0.718384,0.090333,0.09131,-1.012711,1.134176,-38.696104,-4.561774
1783962846.9746,10:14:06.974,1,false,0.692865,-0.063538,0.001282,0.718262,0.098634,0.09424,-1.008316,1.06562,-38.654677,-4.50935
1783962847.0059,10:14:07.005,2,false,0.692796,-0.063599,0.001282,0.718323,0.099611,0.086427,-1.010269,1.033827,-38.632346,-4.551892
1783962847.037,10:14:07.037,3,false,0.692928,-0.063538,0.001343,0.718201,0.093751,0.081544,-1.019547,1.020168,-38.627203,-4.530364
1783962847.0682,10:14:07.068,4,false,0.692928,-0.063538,0.001343,0.718201,0.086427,0.082033,-1.019547,1.022828,-38.682389,-4.645574
1783962847.0993,10:14:07.099,5,false,0.693376,-0.063477,0.001343,0.717773,0.097169,0.098146,-1.027359,1.114945,-38.642333,-4.689447
1783962847.1305,10:14:07.130,6,false,0.693118,-0.063538,0.001343,0.718018,0.097658,0.093263,-1.02443,1.257666,-38.666099,-4.609302
1783962847.1616,10:14:07.161,7,false,0.692865,-0.063538,0.001343,0.718262,0.103029,0.084962,-1.021012,1.221622,-38.702442,-4.731572
1783962847.1927,10:14:07.192,8,false,0.692865,-0.063538,0.001343,0.718262,0.092287,0.081056,-1.018082,1.263952,-38.660381,-4.692076
1783962847.2239,10:14:07.223,9,false,0.693117,-0.063538,0.001404,0.718018,0.099611,0.092287,-1.022477,1.152511,-38.577665,-4.65653
1783962847.255,10:14:07.255,10,false,0.69337,-0.063538,0.001343,0.717773,0.092287,0.084962,-1.012222,1.201752,-38.577989,-4.744169
1783962847.2862,10:14:07.286,11,false,0.693497,-0.063538,0.001404,0.717651,0.093751,0.07422,-1.014176,1.096531,-38.623143,-4.778183
1783962847.3173,10:14:07.317,12,false,0.693617,-0.063599,0.001404,0.717529,0.104494,0.089845,-1.005875,1.106508,-38.693689,-4.778887
1783962847.3484,10:14:07.348,13,false,0.69337,-0.063538,0.001343,0.717773,0.084474,0.082033,-1.014664,1.250073,-38.667457,-4.689798
1783962847.3796,10:14:07.379,14,false,0.693302,-0.063599,0.001343,0.717834,0.098634,0.087404,-1.009781,1.125066,-38.68871,-4.639526
1783962847.4107,10:14:07.410,15,false,0.692986,-0.063599,0.001282,0.71814,0.098634,0.093263,-1.008316,1.206959,-38.722792,-4.728866
1783962847.4421,10:14:07.442,16,false,0.692917,-0.06366,0.001282,0.718201,0.093263,0.093751,-1.011246,1.235801,-38.738512,-4.824225
1783962847.4734,10:14:07.473,17,false,0.69279,-0.06366,0.001282,0.718323,0.098634,0.084962,-1.01857,1.201944,-38.767613,-4.775464
1783962847.5048,10:14:07.504,18,false,0.692997,-0.063477,0.001282,0.71814,0.085939,0.084962,-1.023453,1.126611,-38.823712,-4.626902
1783962847.5361,10:14:07.536,19,false,0.69306,-0.063477,0.001282,0.718079,0.090333,0.09424,-1.014664,1.08872,-38.859247,-4.478243
1783962847.5674,10:14:07.567,20,false,0.692928,-0.063538,0.001221,0.718201,0.092287,0.093263,-1.012222,1.129386,-38.921137,-4.493987
1783962847.5988,10:14:07.598,21,false,0.69287,-0.063477,0.00116,0.718262,0.091798,0.085451,-1.022477,1.18094,-38.857206,-4.448342
1783962847.6301,10:14:07.630,22,false,0.692554,-0.063477,0.001282,0.718567,0.094728,0.086427,-1.010758,1.212384,-38.784715,-4.526893
1783962847.6615,10:14:07.661,23,false,0.692997,-0.063477,0.001221,0.71814,0.094728,0.098146,-1.00441,1.061238,-38.82415,-4.388234
1783962847.6928,10:14:07.692,24,false,0.69306,-0.063477,0.001404,0.718079,0.097658,0.096193,-1.014176,1.059791,-38.754965,-4.547564
1783962847.7242,10:14:07.724,25,false,0.693318,-0.063416,0.001282,0.717834,0.087892,0.085451,-1.014176,1.118304,-38.737559,-4.571331
1783962847.7555,10:14:07.755,26,false,0.693072,-0.063354,0.001099,0.718079,0.083986,0.078614,-1.016617,1.096197,-38.617218,-4.517951
1783962847.7868,10:14:07.786,27,false,0.692887,-0.063293,0.001404,0.718262,0.097169,0.083497,-1.006363,1.151069,-38.613587,-4.574587
1783962847.8182,10:14:07.818,28,false,0.69314,-0.063293,0.00116,0.718018,0.086915,0.092775,-1.020035,1.125686,-38.655181,-4.520882
1783962847.8493,10:14:07.849,29,false,0.693198,-0.063354,0.001282,0.717957,0.103029,0.078614,-1.020523,1.132748,-38.572985,-4.502455
1783962847.8805,10:14:07.880,30,false,0.693071,-0.063354,0.00116,0.718079,0.093751,0.095216,-1.019059,1.139104,-38.573777,-4.426056
1783962847.9116,10:14:07.911,31,false,0.693135,-0.063354,0.001099,0.718018,0.087404,0.098634,-1.004898,1.040147,-38.574491,-4.417111
1783962847.9427,10:14:07.942,0,false,0.69325,-0.063477,0.001343,0.717896,0.102052,0.084962,-1.009781,1.085671,-38.634948,-4.468877
1783962847.9739,10:14:07.973,1,false,0.693186,-0.063477,0.001282,0.717957,0.099123,0.089845,-1.023453,1.171504,-38.674406,-4.635097
1783962848.005,10:14:08.005,2,false,0.693129,-0.063416,0.001404,0.718018,0.098634,0.096193,-1.017105,1.084261,-38.650103,-4.694972
1783962848.0362,10:14:08.036,3,false,0.693571,-0.063416,0.001282,0.71759,0.08838,0.089357,-1.008316,1.170235,-38.643183,-4.524551
1783962848.0673,10:14:08.067,4,false,0.693313,-0.063477,0.001221,0.717834,0.090822,0.090822,-1.018082,1.247611,-38.532279,-4.505758
1783962848.0984,10:14:08.098,5,false,0.693123,-0.063477,0.001343,0.718018,0.095216,0.087404,-1.017105,1.227527,-38.492281,-4.653335
1783962848.1296,10:14:08.129,6,false,0.693186,-0.063477,0.001343,0.717957,0.090822,0.084962,-1.014664,1.149636,-38.575913,-4.442217
1783962848.1607,10:14:08.160,7,false,0.693255,-0.063416,0.001343,0.717896,0.100099,0.085451,-1.011734,1.019718,-38.546505,-4.371842
1783962848.1919,10:14:08.191,8,false,0.693508,-0.063416,0.001404,0.717651,0.09131,0.079591,-1.017594,1.097193,-38.534992,-4.398226
1783962848.2232,10:14:08.223,9,false,0.693381,-0.063416,0.001404,0.717773,0.093263,0.083497,-1.00441,1.09215,-38.569492,-4.421973
1783962848.2545,10:14:08.254,10,false,0.693387,-0.063354,0.001465,0.717773,0.083986,0.075196,-1.012711,1.012843,-38.600541,-4.293806
1783962848.2859,10:14:08.285,11,false,0.69314,-0.063293,0.001465,0.718018,0.094728,0.084962,-1.019547,1.061097,-38.628486,-4.357902
1783962848.3172,10:14:08.317,12,false,0.693019,-0.063232,0.001465,0.71814,0.092775,0.09424,-1.01857,1.04471,-38.623728,-4.251097
1783962848.3486,10:14:08.348,13,false,0.693008,-0.063354,0.001465,0.71814,0.103029,0.105959,-1.008804,1.134639,-38.664308,-4.229741
1783962848.3799,10:14:08.379,14,false,0.692755,-0.063354,0.001404,0.718384,0.081056,0.085451,-1.01857,1.066037,-38.626061,-4.240428
1783962848.4112,10:14:08.411,15,false,0.693071,-0.063354,0.001465,0.718079,0.092775,0.087892,-1.015152,1.079064,-38.666407,-4.324816
1783962848.4426,10:14:08.442,16,false,0.692818,-0.063354,0.001465,0.718323,0.098634,0.090822,-1.015152,1.210419,-38.702719,-4.296088
1783962848.4739,10:14:08.473,17,false,0.693082,-0.063232,0.001465,0.718079,0.081056,0.068849,-1.012222,1.164146,-38.645677,-4.255279
1783962848.5053,10:14:08.505,18,false,0.693266,-0.063293,0.001526,0.717896,0.104494,0.090822,-1.021012,1.032778,-38.758831,-4.263413
1783962848.5366,10:14:08.536,19,false,0.693582,-0.063293,0.001526,0.71759,0.096681,0.098146,-1.022477,0.974362,-38.890577,-4.345502
1783962848.568,10:14:08.568,20,false,0.693513,-0.063354,0.001465,0.717651,0.105959,0.096681,-1.011246,0.951695,-38.844657,-4.374521
1783962848.5992,10:14:08.599,21,false,0.693513,-0.063354,0.001465,0.717651,0.08838,0.084474,-1.022965,0.886433,-38.908005,-4.430546
1783962848.6303,10:14:08.630,22,false,0.693576,-0.063354,0.001526,0.71759,0.092287,0.080079,-1.022965,0.902466,-38.965019,-4.376291
1783962848.6615,10:14:08.661,23,false,0.693513,-0.063354,0.001465,0.717651,0.097169,0.090333,-1.002457,0.976712,-38.821931,-4.372323
1783962848.6926,10:14:08.692,24,false,0.693697,-0.063416,0.001526,0.717468,0.092775,0.077638,-1.001968,0.983718,-38.782875,-4.39866
1783962848.7238,10:14:08.723,25,false,0.693508,-0.063416,0.001465,0.717651,0.095705,0.080568,-1.016617,1.049838,-38.80754,-4.467225
1783962848.7549,10:14:08.754,26,false,0.693255,-0.063416,0.001465,0.717896,0.089845,0.082521,-1.003922,1.064485,-38.784878,-4.424256
1783962848.7861,10:14:08.786,27,false,0.693318,-0.063416,0.001526,0.717834,0.102052,0.085451,-1.01564,1.137483,-38.854204,-4.475307
1783962848.8172,10:14:08.817,28,false,0.693381,-0.063416,0.001526,0.717773,0.096193,0.080079,-1.025406,1.038688,-38.826875,-4.506299
1783962848.8483,10:14:08.848,29,false,0.693444,-0.063416,0.001465,0.717712,0.094728,0.096193,-1.006851,1.039496,-38.892001,-4.474377
1783962848.8795,10:14:08.879,30,false,0.693381,-0.063416,0.001465,0.717773,0.089845,0.078614,-1.016129,1.114993,-38.8908,-4.490508
1783962848.9106,10:14:08.910,31,false,0.693249,-0.063477,0.001465,0.717896,0.100587,0.089845,-1.019547,1.242755,-38.904673,-4.51998
1783962848.9417,10:14:08.941,0,false,0.693307,-0.063538,0.001404,0.717834,0.09424,0.09424,-1.020035,1.268018,-38.752666,-4.48669
1783962848.9731,10:14:08.973,1,false,0.693249,-0.063477,0.001526,0.717896,0.092775,0.080568,-1.013199,1.365524,-38.795306,-4.531498
1783962849.0044,10:14:09.004,2,false,0.69306,-0.063477,0.001465,0.718079,0.099123,0.081056,-1.020523,1.303741,-38.758912,-4.601732
1783962849.0358,10:14:09.035,3,false,0.69306,-0.063477,0.001465,0.718079,0.094728,0.082521,-1.01564,1.322905,-38.800928,-4.530359
1783962849.0671,10:14:09.067,4,false,0.692743,-0.063477,0.001404,0.718384,0.092775,0.090822,-1.018082,1.355107,-38.823787,-4.585754
1783962849.0985,10:14:09.098,5,false,0.69287,-0.063477,0.001343,0.718262,0.102541,0.091798,-1.014664,1.294365,-38.754638,-4.545886
1783962849.1298,10:14:09.129,6,false,0.692617,-0.063477,0.001343,0.718506,0.087404,0.089357,-1.011246,1.329421,-38.737265,-4.465143
1783962849.1611,10:14:09.161,7,false,0.692427,-0.063477,0.001343,0.718689,0.088869,0.089357,-1.015152,1.465648,-38.766492,-4.45229
1783962849.1925,10:14:09.192,8,false,0.692116,-0.063416,0.001282,0.718994,0.093751,0.07715,-1.020523,1.513483,-38.747934,-4.336046
1783962849.2238,10:14:09.223,9,false,0.69192,-0.063477,0.001282,0.719177,0.09424,0.101564,-1.009293,1.406996,-38.776093,-4.380964
1783962849.2552,10:14:09.255,10,false,0.691983,-0.063477,0.001221,0.719116,0.102541,0.081056,-1.015152,1.251343,-38.681805,-4.316714
1783962849.2865,10:14:09.286,11,false,0.69192,-0.063477,0.001221,0.719177,0.093263,0.093263,-1.01857,1.350516,-38.731531,-4.30375
1783962849.3177,10:14:09.317,12,false,0.691983,-0.063477,0.001221,0.719116,0.087404,0.09424,-1.010269,1.320141,-38.596839,-4.336944
1783962849.3488,10:14:09.348,13,false,0.691914,-0.063538,0.001221,0.719177,0.100587,0.080079,-1.017594,1.367573,-38.580292,-4.321957
1783962849.3799,10:14:09.379,14,false,0.692364,-0.063477,0.001343,0.71875,0.098634,0.084474,-1.014664,1.24577,-38.625215,-4.368284
1783962849.4111,10:14:09.411,15,false,0.692358,-0.063538,0.001343,0.71875,0.098146,0.084474,-1.014176,1.315593,-38.620785,-4.365117
1783962849.4422,10:14:09.442,16,false,0.692358,-0.063538,0.001404,0.71875,0.086427,0.091798,-1.013687,1.348526,-38.661659,-4.302452
1783962849.4734,10:14:09.473,17,false,0.692416,-0.063599,0.001343,0.718689,0.092287,0.098146,-1.006851,1.378166,-38.773215,-4.425499
1783962849.5045,10:14:09.504,18,false,0.692416,-0.063599,0.001404,0.718689,0.100587,0.098146,-1.022965,1.28521,-38.753985,-4.41661
1783962849.5356,10:14:09.535,19,false,0.692416,-0.063599,0.001343,0.718689,0.085451,0.076173,-1.009293,1.261366,-38.617046,-4.363749
1783962849.5668,10:14:09.566,20,false,0.692289,-0.063599,0.001343,0.718811,0.085451,0.078126,-1.016617,1.314676,-38.643341,-4.420851
1783962849.5979,10:14:09.597,21,false,0.692295,-0.063538,0.001343,0.718811,0.096681,0.092287,-1.013199,1.198162,-38.532421,-4.457289
1783962849.6291,10:14:09.629,22,false,0.692295,-0.063538,0.001343,0.718811,0.095216,0.081544,-1.011246,1.183023,-38.597085,-4.534944
1783962849.6602,10:14:09.660,23,false,0.692295,-0.063538,0.001343,0.718811,0.100099,0.089357,-1.008804,1.214259,-38.580514,-4.545019
1783962849.6915,10:14:09.691,24,false,0.692173,-0.063477,0.001343,0.718933,0.084474,0.080568,-1.028824,1.272279,-38.789907,-4.583994
1783962849.7229,10:14:09.722,25,false,0.692116,-0.063416,0.001404,0.718994,0.096681,0.083497,-1.016129,1.234774,-38.694239,-4.604117
1783962849.7542,10:14:09.754,26,false,0.6923,-0.063477,0.001343,0.718811,0.094728,0.089845,-1.016617,1.126251,-38.652998,-4.622229
1783962849.7856,10:14:09.785,27,false,0.6923,-0.063477,0.001282,0.718811,0.092775,0.092775,-1.020035,1.163164,-38.675697,-4.578713
1783962849.8169,10:14:09.816,28,false,0.69211,-0.063477,0.001282,0.718994,0.093751,0.089845,-1.0215,1.271155,-38.621357,-4.644226
1783962849.8482,10:14:09.848,29,false,0.692427,-0.063477,0.001343,0.718689,0.095216,0.085939,-1.011246,1.33844,-38.692082,-4.613465
1783962849.8796,10:14:09.879,30,false,0.692433,-0.063416,0.001343,0.718689,0.097169,0.092287,-1.015152,1.294319,-38.651057,-4.58578
1783962849.9109,10:14:09.910,31,false,0.692243,-0.063416,0.001282,0.718872,0.100099,0.080079,-1.019059,1.359287,-38.539365,-4.605725
1783962849.9423,10:14:09.942,0,false,0.692242,-0.063416,0.001343,0.718872,0.078126,0.093751,-1.009293,1.342989,-38.618289,-4.548906
1783962849.9736,10:14:09.973,1,false,0.692433,-0.063416,0.001282,0.718689,0.091798,0.089845,-1.01564,1.253551,-38.68932,-4.572539
1783962850.005,10:14:10.005,2,false,0.692116,-0.063416,0.001282,0.718994,0.100587,0.078614,-1.013199,1.322596,-38.648572,-4.548946
1783962850.0363,10:14:10.036,3,false,0.692179,-0.063416,0.001221,0.718933,0.095216,0.095216,-1.02443,1.309967,-38.686667,-4.527713
1783962850.0676,10:14:10.067,4,false,0.692179,-0.063416,0.00116,0.718933,0.100099,0.082033,-1.008316,1.25374,-38.556461,-4.493649
1783962850.0988,10:14:10.098,5,false,0.692179,-0.063416,0.00116,0.718933,0.099611,0.089845,-1.010758,1.233042,-38.693491,-4.433084
1783962850.1299,10:14:10.129,6,false,0.692496,-0.063416,0.001282,0.718628,0.090822,0.092287,-1.005875,1.139646,-38.667279,-4.408483
1783962850.1611,10:14:10.161,7,false,0.692433,-0.063416,0.001282,0.718689,0.096681,0.086915,-1.017105,1.17522,-38.568919,-4.386342
1783962850.1922,10:14:10.192,8,false,0.692623,-0.063416,0.001343,0.718506,0.088869,0.075196,-1.009293,1.072652,-38.495349,-4.276693
1783962850.2234,10:14:10.223,9,false,0.692501,-0.063354,0.001343,0.718628,0.087404,0.087892,-1.013199,1.040156,-38.384274,-4.312593
1783962850.2545,10:14:10.254,10,false,0.692375,-0.063354,0.001343,0.71875,0.089845,0.082521,-1.017105,1.025863,-38.37403,-4.285087
1783962850.2856,10:14:10.285,11,false,0.692121,-0.063354,0.001343,0.718994,0.088869,0.096681,-1.009293,0.998046,-38.304995,-4.424824
1783962850.3168,10:14:10.316,12,false,0.692121,-0.063354,0.001343,0.718994,0.101564,0.09131,-1.011246,1.002918,-38.392402,-4.371142
1783962850.3479,10:14:10.347,13,false,0.692306,-0.063416,0.001343,0.718811,0.095216,0.092287,-1.012222,0.932534,-38.471069,-4.457412
1783962850.379,10:14:10.379,14,false,0.692433,-0.063416,0.001343,0.718689,0.091798,0.093263,-1.013687,0.943958,-38.467099,-4.430378
1783962850.4102,10:14:10.410,15,false,0.692559,-0.063416,0.001343,0.718567,0.091798,0.084962,-1.017105,0.894423,-38.448572,-4.495771
1783962850.4413,10:14:10.441,16,false,0.692686,-0.063416,0.001343,0.718445,0.090333,0.085451,-1.008804,0.999381,-38.387037,-4.479855
1783962850.4727,10:14:10.472,17,false,0.692559,-0.063416,0.001404,0.718567,0.100099,0.086915,-1.011734,1.048981,-38.436332,-4.450577
1783962850.504,10:14:10.504,18,false,0.692363,-0.063477,0.001465,0.71875,0.090333,0.090822,-1.017594,1.04876,-38.510605,-4.528904
1783962850.5353,10:14:10.535,19,false,0.692427,-0.063477,0.001465,0.718689,0.095216,0.079591,-1.019059,0.988746,-38.368098,-4.554537
1783962850.5667,10:14:10.566,20,false,0.692363,-0.063477,0.001465,0.71875,0.083009,0.078614,-1.010758,0.994548,-38.344517,-4.622467
1783962850.598,10:14:10.598,21,false,0.692237,-0.063477,0.001404,0.718872,0.092775,0.086427,-1.018082,1.044632,-38.248526,-4.62379
1783962850.6294,10:14:10.629,22,false,0.692047,-0.063477,0.001404,0.719055,0.099611,0.092287,-1.021988,1.17943,-38.102318,-4.595072
1783962850.6607,10:14:10.660,23,false,0.692421,-0.063538,0.001465,0.718689,0.100099,0.092287,-1.016129,1.091395,-38.180085,-4.524365
1783962850.6921,10:14:10.692,24,false,0.692421,-0.063538,0.001465,0.718689,0.103029,0.096681,-1.029801,1.161701,-38.205214,-4.595313
1783962850.7234,10:14:10.723,25,false,0.692606,-0.063599,0.001404,0.718506,0.095216,0.09131,-1.011734,1.060485,-38.212876,-4.644212
1783962850.7547,10:14:10.754,26,false,0.692542,-0.063599,0.001343,0.718567,0.088869,0.088869,-1.012222,1.178744,-38.309495,-4.523729
1783962850.7861,10:14:10.786,27,false,0.692479,-0.063599,0.001343,0.718628,0.090822,0.083497,-1.01564,1.105731,-38.381498,-4.549879
1783962850.8174,10:14:10.817,28,false,0.692985,-0.063599,0.001404,0.71814,0.09424,0.081544,-1.016129,0.920389,-38.386485,-4.43883
1783962850.8488,10:14:10.848,29,false,0.692922,-0.063599,0.001343,0.718201,0.093751,0.093263,-1.010269,1.02275,-38.525559,-4.368793
1783962850.8799,10:14:10.879,30,false,0.692675,-0.063538,0.001343,0.718445,0.089845,0.085939,-1.014176,1.189644,-38.501186,-4.440344
1783962850.9111,10:14:10.911,31,false,0.692416,-0.063599,0.001404,0.718689,0.112795,0.09131,-1.004898,1.220218,-38.419436,-4.415017
1783962850.9422,10:14:10.942,0,false,0.692542,-0.063599,0.001404,0.718567,0.096681,0.091798,-1.005386,1.143058,-38.435583,-4.3025
1783962850.9733,10:14:10.973,1,false,0.692606,-0.063599,0.001465,0.718506,0.079591,0.091798,-1.012222,1.118475,-38.420208,-4.276004
1783962851.0045,10:14:11.004,2,false,0.692606,-0.063599,0.001465,0.718506,0.092287,0.078126,-1.004898,1.126258,-38.630679,-4.177388
1783962851.0356,10:14:11.035,3,false,0.692738,-0.063538,0.001465,0.718384,0.082033,0.104982,-1.016129,1.058494,-38.745333,-4.238172
1783962851.0668,10:14:11.066,4,false,0.692928,-0.063538,0.001404,0.718201,0.087404,0.089357,-1.008316,1.117137,-38.72889,-4.248016
1783962851.0979,10:14:11.097,5,false,0.69287,-0.063477,0.001404,0.718262,0.109377,0.07422,-1.019059,1.020377,-38.639323,-4.376507
1783962851.129,10:14:11.129,6,false,0.693054,-0.063538,0.001404,0.718079,0.091798,0.093751,-1.019059,1.097785,-38.58862,-4.402425
1783962851.1602,10:14:11.160,7,false,0.693054,-0.063538,0.001404,0.718079,0.09131,0.09424,-1.011734,1.017915,-38.617757,-4.350983
1783962851.1913,10:14:11.191,8,false,0.692675,-0.063538,0.001343,0.718445,0.100099,0.080568,-1.011734,1.2152,-38.599119,-4.334592
1783962851.2227,10:14:11.222,9,false,0.692548,-0.063538,0.001343,0.718567,0.098146,0.09131,-1.013687,1.168449,-38.507575,-4.245071
1783962851.254,10:14:11.254,10,false,0.692669,-0.063599,0.001404,0.718445,0.097169,0.093263,-1.020035,1.171235,-38.440139,-4.224318
1783962851.2853,10:14:11.285,11,false,0.692537,-0.06366,0.001343,0.718567,0.083497,0.092775,-1.00734,1.158788,-38.334586,-4.265455
1783962851.3167,10:14:11.316,12,false,0.692537,-0.06366,0.001282,0.718567,0.088869,0.086915,-1.007828,1.237309,-38.329311,-4.272571
1783962851.348,10:14:11.348,13,false,0.692347,-0.06366,0.001282,0.71875,0.092775,0.092287,-1.009781,1.113579,-38.489055,-4.41356
1783962851.3794,10:14:11.379,14,false,0.692474,-0.06366,0.001282,0.718628,0.106935,0.091798,-1.009293,1.091944,-38.647779,-4.405865
1783962851.4107,10:14:11.410,15,false,0.692474,-0.06366,0.001282,0.718628,0.099611,0.089357,-1.0215,1.162195,-38.551369,-4.458755
1783962851.4421,10:14:11.442,16,false,0.692785,-0.063721,0.001282,0.718323,0.095705,0.087404,-1.013199,1.031022,-38.599185,-4.386726
1783962851.4734,10:14:11.473,17,false,0.692848,-0.063721,0.001343,0.718262,0.097658,0.093263,-1.013199,1.032597,-38.507635,-4.411622
1783962851.5047,10:14:11.504,18,false,0.692917,-0.06366,0.001343,0.718201,0.09131,0.083497,-1.02443,1.034014,-38.574778,-4.314399
1783962851.5361,10:14:11.536,19,false,0.693043,-0.06366,0.001343,0.718079,0.093263,0.082033,-1.016617,1.005382,-38.560437,-4.226897
1783962851.5674,10:14:11.567,20,false,0.692917,-0.06366,0.001282,0.718201,0.090333,0.092775,-1.010269,1.00952,-38.547531,-4.148146
1783962851.5986,10:14:11.598,21,false,0.693038,-0.063721,0.001282,0.718079,0.095705,0.085939,-1.012711,0.908568,-38.610684,-4.256716
1783962851.6297,10:14:11.629,22,false,0.693106,-0.06366,0.001282,0.718018,0.093263,0.087892,-1.023941,0.982204,-38.607707,-4.384336
1783962851.6608,10:14:11.660,23,false,0.692917,-0.06366,0.001221,0.718201,0.095216,0.087404,-1.01857,1.003614,-38.605027,-4.349656
1783962851.692,10:14:11.692,24,false,0.693101,-0.063721,0.001221,0.718018,0.096193,0.093263,-1.005875,1.00793,-38.512892,-4.30349
1783962851.7231,10:14:11.723,25,false,0.692974,-0.063721,0.001221,0.71814,0.090333,0.089357,-1.019547,1.206214,-38.50474,-4.396526
1783962851.7543,10:14:11.754,26,false,0.692911,-0.063721,0.001221,0.718201,0.115236,0.087404,-1.011246,1.1155,-38.422634,-4.420442
1783962851.7854,10:14:11.785,27,false,0.692911,-0.063721,0.001221,0.718201,0.092775,0.092287,-1.01564,1.168442,-38.333785,-4.456921
1783962851.8165,10:14:11.816,28,false,0.692658,-0.063721,0.00116,0.718445,0.093263,0.091798,-1.006851,1.126367,-38.388405,-4.504706
1783962851.8477,10:14:11.847,29,false,0.692848,-0.063721,0.00116,0.718262,0.088869,0.087892,-1.012711,1.058592,-38.527287,-4.457989
1783962851.8788,10:14:11.878,30,false,0.693038,-0.063721,0.001221,0.718079,0.100587,0.080568,-1.019547,1.027502,-38.487788,-4.430898
1783962851.91,10:14:11.910,31,false,0.693164,-0.063721,0.001221,0.717957,0.09131,0.076661,-1.020035,0.969613,-38.392423,-4.391562
1783962851.9411,10:14:11.941,0,false,0.693106,-0.06366,0.001282,0.718018,0.102052,0.098146,-1.021988,1.02219,-38.396318,-4.341205
1783962851.9722,10:14:11.972,1,false,0.693043,-0.06366,0.001282,0.718079,0.09424,0.092287,-1.019547,0.919971,-38.295147,-4.295885
1783962852.0036,10:14:12.003,2,false,0.693233,-0.06366,0.001221,0.717896,0.084962,0.094728,-1.01857,0.932651,-38.234,-4.329865
1783962852.0349,10:14:12.034,3,false,0.693359,-0.06366,0.001282,0.717773,0.094728,0.084474,-1.015152,0.959017,-38.388322,-4.300632
1783962852.0663,10:14:12.066,4,false,0.693107,-0.06366,0.001221,0.718018,0.093263,0.086915,-1.014664,1.11733,-38.362719,-4.259369
1783962852.0976,10:14:12.097,5,false,0.69298,-0.06366,0.001221,0.71814,0.10547,0.080568,-1.008316,1.110274,-38.414446,-4.356817
1783962852.129,10:14:12.129,6,false,0.693107,-0.06366,0.001221,0.718018,0.09424,0.096193,-1.009781,1.148785,-38.461,-4.265073
1783962852.1603,10:14:12.160,7,false,0.69298,-0.06366,0.00116,0.71814,0.104494,0.089357,-1.01857,1.153537,-38.398222,-4.212412
1783962852.1916,10:14:12.191,8,false,0.692859,-0.063599,0.00116,0.718262,0.094728,0.087404,-1.012711,1.008276,-38.506214,-4.284648
1783962852.223,10:14:12.223,9,false,0.692986,-0.063599,0.00116,0.71814,0.094728,0.096193,-1.015152,1.071941,-38.409007,-4.289844
1783962852.2543,10:14:12.254,10,false,0.693175,-0.063599,0.001221,0.717957,0.095705,0.09131,-1.012711,0.994654,-38.456105,-4.324429
1783962852.2857,10:14:12.285,11,false,0.693112,-0.063599,0.001221,0.718018,0.102541,0.084474,-1.002457,0.984912,-38.468586,-4.220971
1783962852.3168,10:14:12.316,12,false,0.693239,-0.063599,0.001221,0.717896,0.09424,0.09131,-1.007828,0.976144,-38.405049,-4.232535
1783962852.3479,10:14:12.347,13,false,0.693175,-0.063599,0.001221,0.717957,0.092287,0.092287,-1.016617,0.983206,-38.377774,-4.227989
1783962852.3791,10:14:12.379,14,false,0.693175,-0.063599,0.001221,0.717957,0.09424,0.072267,-1.0215,1.109193,-38.457903,-4.268759
1783962852.4102,10:14:12.410,15,false,0.693307,-0.063538,0.001282,0.717834,0.090822,0.079591,-1.010269,1.073043,-38.500111,-4.365268
1783962852.4414,10:14:12.441,16,false,0.693365,-0.063599,0.001343,0.717773,0.097169,0.076173,-1.020035,1.08537,-38.58296,-4.332495
1783962852.4725,10:14:12.472,17,false,0.693681,-0.063599,0.001343,0.717468,0.089845,0.091798,-1.000992,0.976833,-38.463125,-4.288045
1783962852.5037,10:14:12.503,18,false,0.693933,-0.063599,0.001343,0.717224,0.085939,0.103517,-1.018082,0.849242,-38.430042,-4.32281
1783962852.5348,10:14:12.534,19,false,0.694185,-0.063599,0.001343,0.71698,0.096193,0.100099,-1.01564,0.779271,-38.519898,-4.294282
1783962852.5659,10:14:12.565,20,false,0.694311,-0.063599,0.001282,0.716858,0.083497,0.093751,-1.006851,0.716298,-38.525999,-4.268608
1783962852.5971,10:14:12.597,21,false,0.694374,-0.063599,0.001282,0.716797,0.095705,0.089357,-1.017594,0.734391,-38.53149,-4.275408
1783962852.6282,10:14:12.628,22,false,0.694626,-0.063599,0.001343,0.716553,0.092287,0.092287,-1.021988,0.825444,-38.581294,-4.40116
1783962852.6593,10:14:12.659,23,false,0.694437,-0.063599,0.001282,0.716736,0.087892,0.08838,-1.009781,0.832623,-38.581256,-4.439567
1783962852.6905,10:14:12.690,24,false,0.694437,-0.063599,0.001282,0.716736,0.096681,0.089357,-1.019059,0.839084,-38.65599,-4.429271
1783962852.7216,10:14:12.721,25,false,0.694621,-0.06366,0.001282,0.716553,0.100587,0.082521,-1.011734,0.800037,-38.648482,-4.464867
1783962852.753,10:14:12.753,26,false,0.694437,-0.063599,0.001282,0.716736,0.096681,0.087404,-1.016617,0.82471,-38.596864,-4.362319
1783962852.7843,10:14:12.784,27,false,0.694684,-0.06366,0.001343,0.716492,0.090822,0.080568,-1.024918,0.787101,-38.520499,-4.359748
1783962852.8156,10:14:12.815,28,false,0.694809,-0.06366,0.001404,0.71637,0.093751,0.087404,-1.014176,0.693437,-38.451771,-4.327527
1783962852.847,10:14:12.847,29,false,0.694867,-0.063721,0.001343,0.716309,0.098146,0.080079,-1.016617,0.743724,-38.389916,-4.403205
1783962852.8783,10:14:12.878,30,false,0.69493,-0.063721,0.001404,0.716248,0.098146,0.086915,-1.019547,0.863751,-38.483785,-4.396546
1783962852.9097,10:14:12.909,31,false,0.695181,-0.063721,0.001404,0.716003,0.089845,0.083497,-1.01857,0.762422,-38.46359,-4.330737
1783962852.941,10:14:12.941,0,false,0.695244,-0.063721,0.001404,0.715942,0.091798,0.083009,-1.017594,0.850672,-38.445414,-4.331325
1783962852.9724,10:14:12.972,1,false,0.695124,-0.06366,0.001404,0.716064,0.090822,0.096193,-1.000992,1.01982,-38.414102,-4.421577
1783962853.0037,10:14:13.003,2,false,0.695187,-0.06366,0.001404,0.716003,0.083497,0.088869,-1.003922,1.022515,-38.460691,-4.368219
1783962853.035,10:14:13.035,3,false,0.695061,-0.06366,0.001404,0.716125,0.10547,0.090822,-1.006363,1.144571,-38.562436,-4.320197
1783962853.0664,10:14:13.066,4,false,0.694804,-0.063721,0.001343,0.71637,0.097169,0.090333,-1.015152,1.104883,-38.54933,-4.381654
1783962853.0977,10:14:13.097,5,false,0.694609,-0.063782,0.001343,0.716553,0.095705,0.088869,-1.014664,1.173841,-38.432857,-4.407058
1783962853.1289,10:14:13.128,6,false,0.694552,-0.063721,0.001343,0.716614,0.096681,0.095216,-1.016617,1.101319,-38.298124,-4.340198
1783962853.16,10:14:13.160,7,false,0.694489,-0.063721,0.001404,0.716675,0.086427,0.086915,-1.022965,1.065956,-38.460987,-4.399655
1783962853.1912,10:14:13.191,8,false,0.694615,-0.063721,0.001404,0.716553,0.087404,0.08838,-1.021012,1.049083,-38.443072,-4.393351
1783962853.2223,10:14:13.222,9,false,0.694621,-0.06366,0.001404,0.716553,0.089845,0.076661,-1.020035,1.108667,-38.382087,-4.432539
1783962853.2534,10:14:13.253,10,false,0.694746,-0.06366,0.001404,0.716431,0.096681,0.067872,-1.009293,0.997801,-38.357108,-4.407992
1783962853.2846,10:14:13.284,11,false,0.694809,-0.06366,0.001404,0.71637,0.090822,0.092775,-1.022477,1.002697,-38.364534,-4.385901
1783962853.3157,10:14:13.315,12,false,0.694878,-0.063599,0.001465,0.716309,0.085451,0.083497,-1.017594,0.992151,-38.386172,-4.276295
1783962853.3469,10:14:13.346,13,false,0.694689,-0.063599,0.001404,0.716492,0.097658,0.085451,-1.014176,1.132197,-38.405646,-4.252419
1783962853.378,10:14:13.378,14,false,0.6945,-0.063599,0.001404,0.716675,0.093263,0.102052,-1.012222,1.243285,-38.45308,-4.290747
1783962853.4091,10:14:13.409,15,false,0.694558,-0.06366,0.001343,0.716614,0.086915,0.094728,-1.003433,1.268495,-38.346232,-4.280379
1783962853.4403,10:14:13.440,16,false,0.694369,-0.06366,0.001282,0.716797,0.08838,0.083497,-1.020523,1.246322,-38.1753,-4.271049
1783962853.4714,10:14:13.471,17,false,0.694437,-0.063599,0.001343,0.716736,0.094728,0.09424,-1.020523,1.166552,-38.141092,-4.322467
1783962853.5027,10:14:13.502,18,false,0.694369,-0.06366,0.001282,0.716797,0.090333,0.090822,-1.0215,1.214389,-38.110305,-4.264066
1783962853.5341,10:14:13.534,19,false,0.694369,-0.06366,0.001282,0.716797,0.092775,0.084962,-1.009781,1.257442,-38.127458,-4.136737
1783962853.5654,10:14:13.565,20,false,0.694432,-0.06366,0.001282,0.716736,0.084474,0.094728,-1.022965,1.146652,-38.322341,-4.126817
1783962853.5968,10:14:13.596,21,false,0.694426,-0.063721,0.001282,0.716736,0.095705,0.090822,-1.022477,1.061894,-38.303337,-4.177704
1783962853.6281,10:14:13.628,22,false,0.694552,-0.063721,0.001343,0.716614,0.092775,0.084962,-1.019059,1.105243,-38.31614,-4.25341
1783962853.6595,10:14:13.659,23,false,0.694678,-0.063721,0.001343,0.716492,0.090333,0.098634,-1.021988,1.099396,-38.372525,-4.291638
1783962853.6908,10:14:13.690,24,false,0.694369,-0.06366,0.001343,0.716797,0.10547,0.085451,-1.011734,1.168902,-38.483087,-4.281182
1783962853.7221,10:14:13.722,25,false,0.6943,-0.063721,0.001343,0.716858,0.099611,0.087892,-1.01564,1.126781,-38.477915,-4.197002
1783962853.7535,10:14:13.753,26,false,0.694489,-0.063721,0.001343,0.716675,0.101076,0.083497,-1.019059,1.103826,-38.607846,-4.255825
1783962853.7848,10:14:13.784,27,false,0.694357,-0.063782,0.001343,0.716797,0.099611,0.086427,-1.011734,1.187844,-38.455614,-4.233996
1783962853.8162,10:14:13.816,28,false,0.694226,-0.063843,0.001343,0.716919,0.094728,0.097169,-1.01564,1.173736,-38.37842,-4.304073
1783962853.8475,10:14:13.847,29,false,0.69391,-0.063843,0.001343,0.717224,0.096681,0.096681,-1.013199,1.146086,-38.443531,-4.247512
1783962853.8789,10:14:13.878,30,false,0.693853,-0.063782,0.001343,0.717285,0.099123,0.09131,-1.015152,1.181015,-38.487177,-4.28633
1783962853.91,10:14:13.910,31,false,0.693916,-0.063782,0.001404,0.717224,0.091798,0.08838,-1.020523,1.062914,-38.556365,-4.171728
1783962853.9411,10:14:13.941,0,false,0.694037,-0.063843,0.001404,0.717102,0.093751,0.095705,-1.01857,1.031392,-38.439189,-4.277939
1783962853.9723,10:14:13.972,1,false,0.694289,-0.063843,0.001404,0.716858,0.094728,0.082033,-1.011734,1.047883,-38.453361,-4.328668
1783962854.0034,10:14:14.003,2,false,0.693905,-0.063904,0.001343,0.717224,0.100587,0.08838,-1.018082,1.19731,-38.421255,-4.314509
1783962854.0346,10:14:14.034,3,false,0.693595,-0.063843,0.001282,0.717529,0.100587,0.079103,-1.013687,1.271979,-38.257774,-4.391489
1783962854.0657,10:14:14.065,4,false,0.693732,-0.063721,0.001343,0.717407,0.09131,0.093263,-1.010269,1.159735,-38.33495,-4.356094
1783962854.0968,10:14:14.096,5,false,0.693732,-0.063721,0.001343,0.717407,0.099123,0.095216,-1.017594,1.058715,-38.1801,-4.399007
1783962854.128,10:14:14.128,6,false,0.693853,-0.063782,0.001343,0.717285,0.099123,0.08838,-1.019059,0.967798,-38.070642,-4.392768
1783962854.1591,10:14:14.159,7,false,0.6941,-0.063843,0.001343,0.717041,0.104494,0.090333,-1.013199,1.03551,-38.166531,-4.461922
1783962854.1903,10:14:14.190,8,false,0.694163,-0.063843,0.001343,0.71698,0.083497,0.085939,-1.007828,0.917005,-38.1332,-4.494252
1783962854.2214,10:14:14.221,9,false,0.694483,-0.063782,0.001343,0.716675,0.097169,0.09424,-1.023941,0.915028,-38.177971,-4.448581
1783962854.2527,10:14:14.252,10,false,0.694672,-0.063782,0.001404,0.716492,0.095216,0.099123,-1.0215,0.778664,-38.293034,-4.512153
1783962854.2841,10:14:14.284,11,false,0.694924,-0.063782,0.001404,0.716248,0.088869,0.092775,-1.023941,0.850336,-38.232099,-4.404876
1783962854.3154,10:14:14.315,12,false,0.694924,-0.063782,0.001343,0.716248,0.09424,0.095705,-1.017594,0.855025,-38.26698,-4.442912
1783962854.3468,10:14:14.346,13,false,0.694678,-0.063721,0.001282,0.716492,0.096193,0.088869,-1.022477,0.814384,-38.193696,-4.477143
1783962854.3781,10:14:14.378,14,false,0.69493,-0.063721,0.001343,0.716248,0.102052,0.093263,-1.023453,0.807715,-38.322141,-4.448137
1783962854.4095,10:14:14.409,15,false,0.694747,-0.06366,0.001343,0.716431,0.077638,0.087892,-1.019547,0.951251,-38.303156,-4.317354
1783962854.4408,10:14:14.440,16,false,0.694993,-0.063721,0.001343,0.716187,0.092775,0.099611,-1.00734,0.900987,-38.256162,-4.364141
1783962854.4721,10:14:14.472,17,false,0.694678,-0.063721,0.001282,0.716492,0.091798,0.08838,-1.013687,0.85575,-38.333499,-4.436158
1783962854.5035,10:14:14.503,18,false,0.694861,-0.063782,0.001221,0.716309,0.097658,0.092775,-1.021012,0.874852,-38.343286,-4.41125
1783962854.5348,10:14:14.534,19,false,0.694798,-0.063782,0.001282,0.71637,0.085451,0.085451,-1.010758,0.697644,-38.41191,-4.448647
1783962854.5662,10:14:14.566,20,false,0.69505,-0.063782,0.001282,0.716125,0.098146,0.095705,-1.006851,0.702649,-38.488625,-4.42249
1783962854.5973,10:14:14.597,21,false,0.695359,-0.063843,0.001282,0.71582,0.095705,0.087892,-1.012222,0.61743,-38.692254,-4.458764
1783962854.6284,10:14:14.628,22,false,0.695176,-0.063782,0.001282,0.716003,0.090333,0.080079,-1.011734,0.735133,-38.636258,-4.536272
1783962854.6596,10:14:14.659,23,false,0.694987,-0.063782,0.001343,0.716187,0.081544,0.084474,-1.026871,0.900881,-38.675585,-4.665845
1783962854.6907,10:14:14.690,24,false,0.695113,-0.063782,0.001343,0.716064,0.087892,0.087892,-1.001968,0.855655,-38.591348,-4.632922
1783962854.7219,10:14:14.721,25,false,0.695239,-0.063782,0.001343,0.715942,0.095705,0.084962,-1.020035,0.844858,-38.470674,-4.633199
1783962854.753,10:14:14.753,26,false,0.694924,-0.063782,0.001343,0.716248,0.097169,0.087892,-1.008804,0.909911,-38.436836,-4.588586
1783962854.7842,10:14:14.784,27,false,0.694804,-0.063721,0.001343,0.71637,0.101564,0.09131,-1.014664,0.938551,-38.301705,-4.608251
1783962854.8153,10:14:14.815,28,false,0.694673,-0.063782,0.001282,0.716492,0.089357,0.092775,-1.021012,0.949372,-38.314672,-4.640902
1783962854.8464,10:14:14.846,29,false,0.694352,-0.063843,0.001282,0.716797,0.103029,0.097658,-1.011246,1.018927,-38.266527,-4.655335
1783962854.8776,10:14:14.877,30,false,0.694283,-0.063904,0.001282,0.716858,0.104005,0.087892,-1.014176,1.111435,-38.297965,-4.623463
1783962854.9087,10:14:14.908,31,false,0.694409,-0.063904,0.001282,0.716736,0.092775,0.085451,-1.019059,0.985337,-38.176721,-4.63964
1783962854.9398,10:14:14.939,0,false,0.69461,-0.063782,0.001282,0.716553,0.097169,0.090333,-1.018082,0.916711,-38.127417,-4.669152
1783962854.971,10:14:14.971,1,false,0.694541,-0.063843,0.001221,0.716614,0.098634,0.093751,-1.019547,0.974579,-38.127905,-4.695714
1783962855.0021,10:14:15.002,2,false,0.694667,-0.063843,0.001221,0.716492,0.102052,0.080568,-1.013687,0.892075,-38.143298,-4.525219
1783962855.0335,10:14:15.033,3,false,0.694856,-0.063843,0.001282,0.716309,0.105959,0.089845,-1.008804,0.847729,-38.30669,-4.581128
1783962855.0648,10:14:15.064,4,false,0.694787,-0.063904,0.001282,0.71637,0.094728,0.084962,-1.014664,0.807817,-38.259343,-4.526769
1783962855.0961,10:14:15.096,5,false,0.694535,-0.063904,0.001282,0.716614,0.097658,0.080079,-1.011734,0.831712,-38.351315,-4.462892
1783962855.1275,10:14:15.127,6,false,0.694226,-0.063843,0.001282,0.716919,0.110353,0.094728,-1.019059,0.89808,-38.508859,-4.405403
1783962855.1588,10:14:15.158,7,false,0.694472,-0.063904,0.001282,0.716675,0.082033,0.088869,-1.017105,0.927902,-38.486157,-4.398524
1783962855.1902,10:14:15.190,8,false,0.694604,-0.063843,0.001221,0.716553,0.103517,0.085939,-1.016617,0.954743,-38.465724,-4.511964
1783962855.2215,10:14:15.221,9,false,0.694598,-0.063904,0.001282,0.716553,0.100099,0.090333,-1.012711,1.09853,-38.327705,-4.434613
1783962855.2529,10:14:15.252,10,false,0.694157,-0.063904,0.001282,0.71698,0.106447,0.090822,-1.002457,1.227939,-38.397887,-4.544444
1783962855.2842,10:14:15.284,11,false,0.693905,-0.063904,0.001221,0.717224,0.10547,0.083986,-1.023453,1.329452,-38.476005,-4.613384
1783962855.3155,10:14:15.315,12,false,0.693968,-0.063904,0.001221,0.717163,0.089357,0.077638,-1.002945,1.226415,-38.471541,-4.436169
1783962855.3467,10:14:15.346,13,false,0.6941,-0.063843,0.001221,0.717041,0.088869,0.08838,-1.010758,1.088819,-38.482478,-4.426213
1783962855.3778,10:14:15.377,14,false,0.694031,-0.063904,0.00116,0.717102,0.100099,0.099123,-1.00734,1.159384,-38.582045,-4.477069
1783962855.409,10:14:15.409,15,false,0.694157,-0.063904,0.001221,0.71698,0.085939,0.083009,-1.011246,1.192984,-38.611839,-4.522839
1783962855.4401,10:14:15.440,16,false,0.694226,-0.063843,0.001282,0.716919,0.091798,0.084962,-1.002457,1.178362,-38.668562,-4.534124
1783962855.4712,10:14:15.471,17,false,0.693979,-0.063782,0.001221,0.717163,0.087404,0.091798,-1.014664,1.284834,-38.540166,-4.574188
1783962855.5024,10:14:15.502,18,false,0.693916,-0.063782,0.001221,0.717224,0.11133,0.094728,-1.004898,1.305889,-38.633963,-4.640154
1783962855.5335,10:14:15.533,19,false,0.693779,-0.063904,0.001221,0.717346,0.096193,0.08838,-1.016617,1.279977,-38.658566,-4.639707
1783962855.5647,10:14:15.564,20,false,0.693653,-0.063904,0.001282,0.717468,0.089845,0.101076,-1.011734,1.256656,-38.561077,-4.669214
1783962855.5958,10:14:15.595,21,false,0.694089,-0.063965,0.001221,0.717041,0.101564,0.097169,-1.020523,1.205759,-38.548107,-4.695769
1783962855.627,10:14:15.627,22,false,0.694341,-0.063965,0.001221,0.716797,0.090333,0.094728,-1.0215,1.100137,-38.476618,-4.779484
1783962855.6581,10:14:15.658,23,false,0.694472,-0.063904,0.001282,0.716675,0.103517,0.093751,-1.024918,1.16957,-38.516955,-4.82492
1783962855.6892,10:14:15.689,24,false,0.694409,-0.063904,0.001282,0.716736,0.097658,0.091798,-1.020035,1.15729,-38.478489,-4.761136
1783962855.7204,10:14:15.720,25,false,0.694598,-0.063904,0.001343,0.716553,0.102052,0.098146,-1.010269,1.056515,-38.5635,-4.838314
1783962855.7515,10:14:15.751,26,false,0.694844,-0.063965,0.001343,0.716309,0.102541,0.089845,-1.003433,0.950863,-38.475518,-4.818052
1783962855.7828,10:14:15.782,27,false,0.695102,-0.063904,0.001343,0.716064,0.093751,0.086427,-1.010758,0.885684,-38.515965,-4.904493
1783962855.8142,10:14:15.814,28,false,0.694724,-0.063904,0.001282,0.716431,0.08838,0.084474,-1.017594,0.871885,-38.477598,-4.757982
1783962855.8455,10:14:15.845,29,false,0.69473,-0.063843,0.001343,0.716431,0.097169,0.093751,-1.009293,0.964143,-38.517837,-4.77566
1783962855.8769,10:14:15.876,30,false,0.694409,-0.063904,0.001343,0.716736,0.097658,0.079103,-1.016617,1.032221,-38.449376,-4.701848
1783962855.9082,10:14:15.908,31,false,0.694352,-0.063843,0.001404,0.716797,0.092287,0.075196,-1.004898,1.033676,-38.447575,-4.755048
1783962855.9396,10:14:15.939,0,false,0.694037,-0.063843,0.001282,0.717102,0.099611,0.085451,-1.012222,1.259293,-38.371186,-4.668343
1783962855.9709,10:14:15.970,1,false,0.693784,-0.063843,0.001282,0.717346,0.096681,0.092287,-1.019059,1.223086,-38.511789,-4.63517
1783962856.0022,10:14:16.002,2,false,0.693406,-0.063843,0.001221,0.717712,0.087404,0.086915,-1.023941,1.340039,-38.59347,-4.575407
1783962856.0336,10:14:16.033,3,false,0.693153,-0.063843,0.001221,0.717957,0.102052,0.087404,-1.014664,1.370528,-38.711845,-4.52162
1783962856.0649,10:14:16.064,4,false,0.693021,-0.063904,0.001221,0.718079,0.101076,0.085451,-1.010758,1.412921,-38.683798,-4.533027
1783962856.0963,10:14:16.096,5,false,0.692773,-0.063843,0.001221,0.718323,0.09131,0.086427,-1.016129,1.451075,-38.703417,-4.603109
1783962856.1276,10:14:16.127,6,false,0.692584,-0.063843,0.00116,0.718506,0.093263,0.092287,-1.010758,1.350829,-38.691166,-4.651228
1783962856.1588,10:14:16.158,7,false,0.692457,-0.063843,0.001099,0.718628,0.101076,0.090333,-1.01564,1.440054,-38.56051,-4.679582
1783962856.1899,10:14:16.189,8,false,0.692774,-0.063843,0.001099,0.718323,0.092287,0.099611,-1.022477,1.370817,-38.622366,-4.705101
1783962856.221,10:14:16.221,9,false,0.692716,-0.063782,0.001099,0.718384,0.110353,0.07715,-1.020523,1.428136,-38.513543,-4.743021
1783962856.2522,10:14:16.252,10,false,0.693027,-0.063843,0.00116,0.718079,0.097658,0.082521,-1.012222,1.389999,-38.475418,-4.612658
1783962856.2833,10:14:16.283,11,false,0.69309,-0.063843,0.001099,0.718018,0.082033,0.095216,-1.017105,1.37063,-38.485968,-4.659822
1783962856.3145,10:14:16.314,12,false,0.693279,-0.063843,0.00116,0.717834,0.093751,0.092775,-1.023941,1.263475,-38.4506,-4.687317
1783962856.3456,10:14:16.345,13,false,0.69309,-0.063843,0.001221,0.718018,0.105959,0.093263,-1.017594,1.286665,-38.493539,-4.74197
1783962856.3767,10:14:16.376,14,false,0.693222,-0.063782,0.001221,0.717896,0.104494,0.100099,-1.016129,1.307537,-38.532184,-4.731342
1783962856.4079,10:14:16.407,15,false,0.693216,-0.063843,0.001221,0.717896,0.092775,0.079591,-1.01857,1.281461,-38.566964,-4.647008
1783962856.439,10:14:16.439,16,false,0.693348,-0.063782,0.001221,0.717773,0.096193,0.089357,-1.013199,1.257991,-38.553405,-4.675784
1783962856.4702,10:14:16.470,17,false,0.693216,-0.063843,0.001221,0.717896,0.097169,0.092287,-1.011734,1.311638,-38.615971,-4.701682
1783962856.5013,10:14:16.501,18,false,0.693159,-0.063782,0.00116,0.717957,0.075196,0.092287,-1.012222,1.285151,-38.597511,-4.724991
1783962856.5326,10:14:16.532,19,false,0.693159,-0.063782,0.00116,0.717957,0.089357,0.083497,-1.011246,1.246359,-38.67062,-4.805784
1783962856.564,10:14:16.564,20,false,0.693285,-0.063782,0.00116,0.717834,0.09424,0.085939,-1.009781,1.241354,-38.631742,-4.758867
1783962856.5953,10:14:16.595,21,false,0.693159,-0.063782,0.001099,0.717957,0.098146,0.09424,-1.015152,1.236849,-38.67152,-4.761503
1783962856.6267,10:14:16.626,22,false,0.693222,-0.063782,0.00116,0.717896,0.096193,0.083009,-1.021012,1.217841,-38.617598,-4.70406
1783962856.658,10:14:16.658,23,false,0.693538,-0.063782,0.001221,0.71759,0.101076,0.089357,-1.009293,1.245596,-38.598975,-4.517777
1783962856.6893,10:14:16.689,24,false,0.693475,-0.063782,0.001221,0.717651,0.093751,0.09131,-1.01564,1.225713,-38.507446,-4.484707
1783962856.7207,10:14:16.720,25,false,0.693537,-0.063782,0.001343,0.71759,0.10547,0.074708,-1.009293,1.207819,-38.425069,-4.454944
1783962856.752,10:14:16.752,26,false,0.693543,-0.063721,0.001343,0.71759,0.099123,0.086427,-1.026383,1.17676,-38.410746,-4.487972
1783962856.7834,10:14:16.783,27,false,0.693606,-0.063721,0.001282,0.717529,0.094728,0.089357,-1.007828,1.029176,-38.412808,-4.502744
1783962856.8147,10:14:16.814,28,false,0.693796,-0.063721,0.001282,0.717346,0.089357,0.086427,-1.010269,1.030935,-38.519342,-4.516039
1783962856.8461,10:14:16.846,29,false,0.693985,-0.063721,0.001282,0.717163,0.097658,0.085451,-1.025895,0.853073,-38.435776,-4.378466
1783962856.8774,10:14:16.877,30,false,0.693985,-0.063721,0.001282,0.717163,0.102052,0.089357,-1.016617,0.917304,-38.405428,-4.329419
1783962856.9087,10:14:16.908,31,false,0.693796,-0.063721,0.001282,0.717346,0.087404,0.092775,-1.010758,0.975112,-38.333253,-4.389954
1783962856.9399,10:14:16.939,0,false,0.69367,-0.063721,0.001221,0.717468,0.089357,0.088869,-1.007828,1.116862,-38.28325,-4.38462
1783962856.971,10:14:16.971,1,false,0.693601,-0.063782,0.001221,0.717529,0.09424,0.101076,-1.013687,1.109853,-38.372831,-4.409727
1783962857.0022,10:14:17.002,2,false,0.693475,-0.063782,0.001221,0.717651,0.086427,0.094728,-1.007828,1.118498,-38.468408,-4.402416
1783962857.0333,10:14:17.033,3,false,0.693664,-0.063782,0.001221,0.717468,0.098634,0.078126,-1.006851,1.096371,-38.52452,-4.440697
1783962857.0644,10:14:17.064,4,false,0.693727,-0.063782,0.001221,0.717407,0.092775,0.100587,-1.011246,1.106365,-38.575021,-4.430289
1783962857.0956,10:14:17.095,5,false,0.694043,-0.063782,0.00116,0.717102,0.099123,0.095216,-1.013687,0.995729,-38.635425,-4.480737
1783962857.1267,10:14:17.126,6,false,0.694232,-0.063782,0.001221,0.716919,0.090822,0.089845,-1.018082,0.926063,-38.719697,-4.451371
1783962857.1579,10:14:17.157,7,false,0.694604,-0.063843,0.001221,0.716553,0.093263,0.082521,-1.010269,0.833457,-38.795541,-4.290356
1783962857.189,10:14:17.189,8,false,0.694547,-0.063782,0.001221,0.716614,0.098634,0.080568,-1.017105,0.89965,-38.729217,-4.280028
1783962857.2201,10:14:17.220,9,false,0.694735,-0.063782,0.001282,0.716431,0.099123,0.08838,-1.019547,0.929316,-38.564848,-4.360456
1783962857.2513,10:14:17.251,10,false,0.694547,-0.063782,0.001282,0.716614,0.101564,0.086427,-1.011246,0.866292,-38.656177,-4.343118
1783962857.2826,10:14:17.282,11,false,0.694609,-0.063782,0.001343,0.716553,0.099611,0.085939,-1.009293,0.899293,-38.573881,-4.282652
1783962857.314,10:14:17.314,12,false,0.694798,-0.063782,0.001343,0.71637,0.096681,0.085451,-1.019059,0.884133,-38.664307,-4.347864
1783962857.3453,10:14:17.345,13,false,0.694673,-0.063782,0.001282,0.716492,0.09424,0.087892,-1.01857,0.840581,-38.551291,-4.346739
1783962857.3766,10:14:17.376,14,false,0.694673,-0.063782,0.001282,0.716492,0.09424,0.089845,-1.017105,0.935969,-38.539299,-4.435449
1783962857.408,10:14:17.408,15,false,0.694547,-0.063782,0.001282,0.716614,0.09424,0.092775,-1.022965,0.932095,-38.588322,-4.470427
1783962857.4393,10:14:17.439,16,false,0.694856,-0.063843,0.001343,0.716309,0.090333,0.103029,-1.017594,0.764117,-38.617488,-4.516861
1783962857.4707,10:14:17.470,17,false,0.694798,-0.063782,0.001282,0.71637,0.097658,0.091798,-1.016617,0.762474,-38.643738,-4.483883
1783962857.502,10:14:17.502,18,false,0.695044,-0.063843,0.001343,0.716125,0.097169,0.074708,-1.017594,0.760996,-38.622502,-4.558879
1783962857.5334,10:14:17.533,19,false,0.69517,-0.063843,0.001343,0.716003,0.096681,0.076661,-1.010269,0.69985,-38.663204,-4.581514
1783962857.5647,10:14:17.564,20,false,0.695484,-0.063843,0.001404,0.715698,0.098146,0.085939,-1.006851,0.659773,-38.460575,-4.512163
1783962857.596,10:14:17.596,21,false,0.695479,-0.063904,0.001404,0.715698,0.099123,0.082521,-1.019547,0.758288,-38.51747,-4.4647
1783962857.6272,10:14:17.627,22,false,0.695044,-0.063843,0.001343,0.716125,0.09131,0.079591,-1.01857,0.921721,-38.493906,-4.421984
1783962857.6583,10:14:17.658,23,false,0.695039,-0.063904,0.001343,0.716125,0.102541,0.089845,-1.013687,0.87441,-38.353068,-4.413447
1783962857.6895,10:14:17.689,24,false,0.695159,-0.063965,0.001343,0.716003,0.083986,0.092287,-1.013199,0.876692,-38.301083,-4.480533
1783962857.7206,10:14:17.720,25,false,0.695033,-0.063965,0.001343,0.716125,0.095705,0.080079,-1.011734,0.908654,-38.254297,-4.286695
1783962857.7517,10:14:17.751,26,false,0.695227,-0.063904,0.001343,0.715942,0.093263,0.078126,-1.019547,0.847696,-38.197235,-4.426271
1783962857.7829,10:14:17.782,27,false,0.695233,-0.063843,0.001343,0.715942,0.102052,0.086427,-1.005386,0.792834,-38.220649,-4.327582
1783962857.814,10:14:17.814,28,false,0.695359,-0.063843,0.001343,0.71582,0.097658,0.100587,-1.016129,0.803274,-38.226768,-4.26867
1783962857.8452,10:14:17.845,29,false,0.695296,-0.063843,0.001465,0.715881,0.100099,0.085451,-1.002457,0.752854,-38.067782,-4.33528
1783962857.8763,10:14:17.876,30,false,0.69517,-0.063843,0.001465,0.716003,0.091798,0.084962,-1.009781,0.827107,-38.029372,-4.469998
1783962857.9074,10:14:17.907,31,false,0.69517,-0.063843,0.001465,0.716003,0.097658,0.089357,-1.023453,0.834119,-38.009757,-4.45666
1783962857.9386,10:14:17.938,0,false,0.694798,-0.063782,0.001465,0.71637,0.092775,0.08838,-1.012222,0.855384,-38.051918,-4.534378
1783962857.9697,10:14:17.969,1,false,0.694541,-0.063843,0.001465,0.716614,0.103517,0.094728,-1.012711,0.889477,-38.224448,-4.559463
1783962858.0009,10:14:18.000,2,false,0.694478,-0.063843,0.001465,0.716675,0.104982,0.090333,-1.019059,0.890252,-38.185325,-4.656809
1783962858.0322,10:14:18.032,3,false,0.69454,-0.063843,0.001526,0.716614,0.095216,0.081544,-1.014664,0.905904,-38.20993,-4.579928
1783962858.0635,10:14:18.063,4,false,0.694357,-0.063782,0.001465,0.716797,0.091798,0.098634,-1.011246,0.964852,-38.381613,-4.615412
1783962858.0949,10:14:18.094,5,false,0.69391,-0.063843,0.001404,0.717224,0.099123,0.088869,-1.015152,0.973043,-38.311819,-4.61744
1783962858.1262,10:14:18.126,6,false,0.693595,-0.063843,0.001404,0.717529,0.096193,0.085451,-1.017105,1.115001,-38.263959,-4.634219
1783962858.1576,10:14:18.157,7,false,0.693348,-0.063782,0.001343,0.717773,0.086427,0.090822,-1.009781,1.108177,-38.280701,-4.559597
1783962858.1889,10:14:18.188,8,false,0.693411,-0.063782,0.001343,0.717712,0.093263,0.078614,-1.014176,0.952498,-38.235953,-4.58216
1783962858.2203,10:14:18.220,9,false,0.69329,-0.063721,0.001282,0.717834,0.09424,0.090822,-1.017105,1.006787,-38.300356,-4.512744
1783962858.2516,10:14:18.251,10,false,0.693417,-0.063721,0.001221,0.717712,0.092287,0.094728,-1.016129,0.95097,-38.223735,-4.465223
1783962858.2829,10:14:18.282,11,false,0.693853,-0.063782,0.001221,0.717285,0.097658,0.088869,-1.00734,0.855873,-38.28936,-4.437408
1783962858.3143,10:14:18.314,12,false,0.69379,-0.063782,0.001221,0.717346,0.104005,0.086427,-1.023941,1.009547,-38.243746,-4.292744
1783962858.3456,10:14:18.345,13,false,0.693417,-0.063721,0.001221,0.717712,0.096681,0.085451,-1.011246,1.162807,-38.30737,-4.356947
1783962858.377,10:14:18.377,14,false,0.693475,-0.063782,0.00116,0.717651,0.092287,0.086427,-1.020523,1.121296,-38.215093,-4.414729
1783962858.4081,10:14:18.408,15,false,0.693411,-0.063782,0.00116,0.717712,0.095705,0.085451,-1.01857,1.263382,-38.341398,-4.436825
1783962858.4392,10:14:18.439,16,false,0.693101,-0.063721,0.00116,0.718018,0.094728,0.089845,-1.016617,1.31649,-38.425165,-4.41185
1783962858.4704,10:14:18.470,17,false,0.693601,-0.063782,0.00116,0.717529,0.094728,0.094728,-1.010758,1.274564,-38.485601,-4.404327
1783962858.5015,10:14:18.501,18,false,0.693475,-0.063782,0.00116,0.717651,0.098634,0.090333,-1.015152,1.296646,-38.52504,-4.382601
1783962858.5327,10:14:18.532,19,false,0.693343,-0.063843,0.001099,0.717773,0.088869,0.090333,-1.009781,1.421196,-38.440904,-4.363049
1783962858.5638,10:14:18.563,20,false,0.69328,-0.063843,0.001099,0.717834,0.083009,0.086915,-1.000504,1.323938,-38.424997,-4.360405
1783962858.595,10:14:18.595,21,false,0.693222,-0.063782,0.00116,0.717896,0.099123,0.087404,-1.013687,1.430806,-38.440588,-4.358026
1783962858.6261,10:14:18.626,22,false,0.693153,-0.063843,0.00116,0.717957,0.095216,0.087404,-1.014176,1.302679,-38.499482,-4.325977
1783962858.6572,10:14:18.657,23,false,0.693222,-0.063782,0.00116,0.717896,0.096681,0.087892,-1.017105,1.32195,-38.537533,-4.20741
1783962858.6884,10:14:18.688,24,false,0.693348,-0.063782,0.001221,0.717773,0.091798,0.089845,-1.009293,1.339293,-38.526917,-4.130608
1783962858.7195,10:14:18.719,25,false,0.693411,-0.063782,0.001221,0.717712,0.088869,0.087404,-1.012222,1.280133,-38.442593,-4.136254
1783962858.7508,10:14:18.750,26,false,0.693538,-0.063782,0.00116,0.71759,0.096193,0.090822,-1.02443,1.391381,-38.202209,-4.126383
1783962858.782,10:14:18.782,27,false,0.693601,-0.063782,0.00116,0.717529,0.099611,0.088869,-1.016129,1.35692,-38.299895,-4.057683
1783962858.8133,10:14:18.813,28,false,0.69379,-0.063782,0.00116,0.717346,0.095216,0.084474,-1.020523,1.340859,-38.298089,-4.160345
1783962858.8447,10:14:18.844,29,false,0.693916,-0.063782,0.00116,0.717224,0.095705,0.095216,-1.001968,1.296496,-38.446002,-4.148064
1783962858.876,10:14:18.876,30,false,0.69391,-0.063843,0.00116,0.717224,0.099123,0.095216,-1.014664,1.316385,-38.549216,-4.331412
1783962858.9074,10:14:18.907,31,false,0.693842,-0.063904,0.00116,0.717285,0.095216,0.095216,-1.00441,1.169792,-38.627155,-4.302024
1783962858.9387,10:14:18.938,0,false,0.693905,-0.063904,0.00116,0.717224,0.086427,0.089357,-1.017105,1.142536,-38.592622,-4.275575
1783962858.97,10:14:18.970,1,false,0.693905,-0.063904,0.001221,0.717224,0.101076,0.090333,-1.015152,1.118006,-38.516682,-4.251772
1783962859.0014,10:14:19.001,2,false,0.693527,-0.063904,0.00116,0.71759,0.094728,0.089845,-1.019059,1.051067,-38.567967,-4.335025
1783962859.0327,10:14:19.032,3,false,0.69359,-0.063904,0.00116,0.717529,0.098634,0.095216,-1.016129,1.050637,-38.524399,-4.365092
1783962859.0641,10:14:19.064,4,false,0.693653,-0.063904,0.001099,0.717468,0.089845,0.086427,-1.013687,0.975481,-38.440328,-4.526736
1783962859.0954,10:14:19.095,5,false,0.693779,-0.063904,0.00116,0.717346,0.093751,0.091798,-1.014664,0.892887,-38.424478,-4.477816
1783962859.1268,10:14:19.126,6,false,0.694158,-0.063904,0.00116,0.71698,0.096681,0.090822,-1.021988,0.758736,-38.410214,-4.403881
1783962859.1581,10:14:19.158,7,false,0.694158,-0.063904,0.00116,0.71698,0.093263,0.086915,-1.006851,0.727724,-38.427284,-4.367246
1783962859.1892,10:14:19.189,8,false,0.694026,-0.063965,0.001221,0.717102,0.091798,0.098634,-1.006851,0.834398,-38.323016,-4.27446
1783962859.2204,10:14:19.220,9,false,0.693831,-0.064026,0.00116,0.717285,0.08838,0.100099,-1.012222,0.825727,-38.229174,-4.265722
1783962859.2515,10:14:19.251,10,false,0.693894,-0.064026,0.00116,0.717224,0.094728,0.086915,-1.016617,0.847832,-38.249394,-4.407395
1783962859.2827,10:14:19.282,11,false,0.694083,-0.064026,0.00116,0.717041,0.093263,0.088869,-1.01857,0.867725,-38.267592,-4.355456
1783962859.3138,10:14:19.313,12,false,0.6939,-0.063965,0.00116,0.717224,0.098146,0.104982,-1.021988,0.88563,-38.254062,-4.338618
1783962859.3449,10:14:19.344,13,false,0.694209,-0.064026,0.001099,0.716919,0.090333,0.095216,-1.008804,0.946605,-38.271793,-4.323464
1783962859.3761,10:14:19.376,14,false,0.694026,-0.063965,0.00116,0.717102,0.097658,0.082521,-1.020035,1.001483,-38.332613,-4.235056
1783962859.4072,10:14:19.407,15,false,0.693963,-0.063965,0.001099,0.717163,0.092287,0.08838,-1.007828,1.065827,-38.357443,-4.245211
1783962859.4384,10:14:19.438,16,false,0.694221,-0.063904,0.001099,0.716919,0.097658,0.082521,-1.01564,1.108783,-38.334928,-4.239398
1783962859.4695,10:14:19.469,17,false,0.693968,-0.063904,0.001099,0.717163,0.08838,0.09131,-1.009781,1.192304,-38.284757,-4.36875
1783962859.5006,10:14:19.500,18,false,0.69371,-0.063965,0.001099,0.717407,0.093263,0.104494,-1.006363,1.237566,-38.314372,-4.335629
1783962859.5318,10:14:19.531,19,false,0.693837,-0.063965,0.001038,0.717285,0.094728,0.089845,-1.023941,1.218486,-38.251303,-4.395543
1783962859.5631,10:14:19.563,20,false,0.693963,-0.063965,0.001099,0.717163,0.109865,0.083009,-1.016129,1.201315,-38.344079,-4.479373
1783962859.5945,10:14:19.594,21,false,0.693848,-0.063843,0.000916,0.717285,0.098634,0.087404,-1.019547,1.126045,-38.412624,-4.36042
1783962859.6258,10:14:19.625,22,false,0.693785,-0.063843,0.000854,0.717346,0.103029,0.092775,-1.025895,1.20784,-38.399545,-4.47767
1783962859.6571,10:14:19.657,23,false,0.69359,-0.063904,0.001221,0.717529,0.101076,0.079103,-1.018082,1.251548,-38.492451,-4.463565
1783962859.6885,10:14:19.688,24,false,0.693722,-0.063843,0.000916,0.717407,0.087892,0.094728,-1.017105,1.156301,-38.561112,-4.585454
1783962859.7198,10:14:19.719,25,false,0.693584,-0.063965,0.00116,0.717529,0.095216,0.095705,-1.014176,1.205163,-38.637861,-4.500755
1783962859.7512,10:14:19.751,26,false,0.693521,-0.063965,0.00116,0.71759,0.086915,0.096681,-1.013199,1.264093,-38.587305,-4.439479
1783962859.7825,10:14:19.782,27,false,0.693343,-0.063843,0.000793,0.717773,0.080079,0.08838,-1.012222,1.391899,-38.616573,-4.4591
1783962859.8139,10:14:19.813,28,false,0.693268,-0.063965,0.001526,0.717834,0.098634,0.094728,-1.013199,1.506925,-38.642915,-4.506667
1783962859.8452,10:14:19.845,29,false,0.693401,-0.063904,0.000977,0.717712,0.087404,0.083497,-1.009293,1.445955,-38.606806,-4.489662
1783962859.8765,10:14:19.876,30,false,0.693527,-0.063904,0.001038,0.71759,0.097169,0.089357,-1.016129,1.30136,-38.664032,-4.56408
1783962859.9079,10:14:19.907,31,false,0.693653,-0.063904,0.001343,0.717468,0.086427,0.093263,-1.01564,1.395531,-38.745443,-4.571241
1783962859.939,10:14:19.939,0,false,0.693602,-0.063782,0.000732,0.717529,0.07715,0.090822,-1.020523,1.30084,-38.72899,-4.487963
1783962859.9702,10:14:19.970,1,false,0.693273,-0.063904,0.001404,0.717834,0.10547,0.088869,-1.023453,1.140848,-38.669321,-4.562551
1783962860.0013,10:14:20.001,2,false,0.693337,-0.063904,0.00116,0.717773,0.084962,0.093263,-1.014176,1.146394,-38.58571,-4.539957
1783962860.0324,10:14:20.032,3,false,0.693217,-0.063843,0.000854,0.717896,0.109377,0.092775,-1.017594,1.136431,-38.4656,-4.474762
1783962860.0636,10:14:20.063,4,false,0.69328,-0.063843,0.001038,0.717834,0.102541,0.089845,-1.015152,1.097558,-38.312639,-4.416085
1783962860.0947,10:14:20.094,5,false,0.693349,-0.063782,0.000671,0.717773,0.082521,0.09424,-1.020035,1.167248,-38.429189,-4.363277
1783962860.1259,10:14:20.125,6,false,0.693084,-0.063904,0.001343,0.718018,0.096681,0.087892,-1.008804,1.200061,-38.608853,-4.390518
1783962860.157,10:14:20.157,7,false,0.693216,-0.063843,0.001038,0.717896,0.083986,0.087892,-1.021012,1.124917,-38.606059,-4.534666
1783962860.1881,10:14:20.188,8,false,0.693222,-0.063782,0.001038,0.717896,0.101076,0.076173,-1.018082,1.042333,-38.58859,-4.679353
1783962860.2193,10:14:20.219,9,false,0.693411,-0.063782,0.001404,0.717712,0.107424,0.07129,-1.014176,1.042776,-38.572869,-4.630125
1783962860.2504,10:14:20.250,10,false,0.693624,-0.063538,0.00061,0.717529,0.064454,0.093751,-1.017105,0.98336,-38.543765,-4.720405
1783962860.2818,10:14:20.281,11,false,0.693422,-0.06366,0.001343,0.717712,0.112795,0.086427,-1.01564,1.049517,-38.592341,-4.652118
1783962860.3131,10:14:20.313,12,false,0.693285,-0.063782,0.001221,0.717834,0.101076,0.093751,-1.014664,1.049242,-38.576244,-4.650475
1783962860.3444,10:14:20.344,13,false,0.693286,-0.063782,0.000732,0.717834,0.089845,0.096681,-1.014664,1.138718,-38.65148,-4.663951
1783962860.3758,10:14:20.375,14,false,0.692957,-0.063904,0.001587,0.71814,0.111818,0.060548,-1.00734,1.189338,-38.719193,-4.676079
1783962860.4071,10:14:20.407,15,false,0.69336,-0.06366,0.000916,0.717773,0.067384,0.098146,-1.013687,1.100312,-38.76518,-4.701948
1783962860.4385,10:14:20.438,16,false,0.693681,-0.063599,0.001282,0.717468,0.104494,0.086915,-1.017594,0.975327,-38.746753,-4.740183
1783962860.4698,10:14:20.469,17,false,0.693669,-0.063721,0.001587,0.717468,0.120119,0.092287,-1.005386,0.922656,-38.730169,-4.819457
1783962860.5012,10:14:20.501,18,false,0.694043,-0.063782,0.000732,0.717102,0.089357,0.10547,-1.023941,0.875252,-38.685335,-4.741265
1783962860.5325,10:14:20.532,19,false,0.694157,-0.063904,0.001282,0.71698,0.101076,0.07715,-1.018082,0.80268,-38.570216,-4.670892
1783962860.5638,10:14:20.563,20,false,0.694231,-0.063782,0.001343,0.716919,0.101564,0.083986,-1.042985,0.871951,-38.601193,-4.667372
1783962860.5952,10:14:20.595,21,false,0.694558,-0.06366,0.000854,0.716614,0.080079,0.081056,-1.039078,0.784756,-38.554303,-4.619343
1783962860.6265,10:14:20.626,22,false,0.694357,-0.063782,0.001709,0.716797,0.1084,0.092287,-1.017105,0.870772,-38.601826,-4.635931
1783962860.6577,10:14:20.657,23,false,0.69461,-0.063782,0.001038,0.716553,0.098634,0.104494,-1.013687,0.783695,-38.58478,-4.635906
1783962860.6888,10:14:20.688,24,false,0.694667,-0.063843,0.001282,0.716492,0.099611,0.098146,-1.019547,0.899726,-38.584393,-4.605978
1783962860.7199,10:14:20.719,25,false,0.694793,-0.063843,0.001282,0.71637,0.100587,0.086915,-1.026871,0.824707,-38.404599,-4.623903
1783962860.7511,10:14:20.751,26,false,0.694804,-0.063721,0.001343,0.71637,0.083009,0.082521,-1.010269,0.697375,-38.347461,-4.669943
1783962860.7822,10:14:20.782,27,false,0.694568,-0.063538,0.001648,0.716614,0.093751,0.066407,-1.00734,0.747268,-38.19136,-4.756241
1783962860.8134,10:14:20.813,28,false,0.694809,-0.06366,0.001404,0.71637,0.107912,0.104494,-1.01564,0.702449,-38.215361,-4.774094
1783962860.8445,10:14:20.844,29,false,0.69486,-0.063782,0.00177,0.716309,0.107912,0.098634,-1.019547,0.61725,-38.251916,-4.700438
1783962860.8757,10:14:20.875,30,false,0.695044,-0.063843,0.001343,0.716125,0.087404,0.093263,-1.005386,0.585433,-38.165185,-4.693963
1783962860.9068,10:14:20.906,31,false,0.695044,-0.063843,0.001404,0.716125,0.080079,0.082033,-1.002457,0.676428,-38.117034,-4.568505
1783962860.9379,10:14:20.937,0,false,0.694798,-0.063782,0.001648,0.71637,0.109865,0.071778,-1.016129,0.773277,-38.163422,-4.515409
1783962860.9691,10:14:20.969,1,false,0.694872,-0.06366,0.001587,0.716309,0.096681,0.097658,-1.018082,0.875396,-38.115448,-4.407806
1783962861.0002,10:14:21.000,2,false,0.694798,-0.063782,0.001587,0.71637,0.096193,0.092287,-1.013199,0.832718,-38.012456,-4.445548
1783962861.0313,10:14:21.031,3,false,0.694661,-0.063904,0.001526,0.716492,0.103029,0.098146,-1.010269,0.913938,-38.114163,-4.404747
1783962861.0627,10:14:21.062,4,false,0.694655,-0.063965,0.001526,0.716492,0.102052,0.084962,-1.01564,0.927221,-38.041207,-4.38298
1783962861.094,10:14:21.094,5,false,0.694661,-0.063904,0.001587,0.716492,0.099123,0.081544,-1.025406,0.924222,-38.095177,-4.423205
1783962861.1254,10:14:21.125,6,false,0.694729,-0.063843,0.001587,0.716431,0.093263,0.084962,-1.006363,0.936477,-38.098889,-4.549131
1783962861.1567,10:14:21.156,7,false,0.694792,-0.063843,0.001709,0.71637,0.107912,0.072755,-1.012711,0.812921,-38.10223,-4.483017
1783962861.1881,10:14:21.188,8,false,0.694912,-0.063904,0.001709,0.716248,0.092287,0.084474,-1.023941,0.821352,-38.045421,-4.438469
1783962861.2194,10:14:21.219,9,false,0.694975,-0.063904,0.001648,0.716187,0.095705,0.089357,-1.022965,0.813986,-37.979339,-4.41333
1783962861.2507,10:14:21.250,10,false,0.694907,-0.063965,0.001648,0.716248,0.097658,0.087892,-1.012711,0.837265,-37.949773,-4.390705
1783962861.2821,10:14:21.282,11,false,0.695164,-0.063904,0.001709,0.716003,0.092287,0.086427,-1.018082,0.828307,-38.072703,-4.340434
1783962861.3134,10:14:21.313,12,false,0.695363,-0.063782,0.001709,0.71582,0.08838,0.074708,-1.026871,0.715569,-38.0338,-4.36996
1783962861.3448,10:14:21.344,13,false,0.695552,-0.063782,0.001709,0.715637,0.101076,0.092775,-1.012222,0.733735,-37.938973,-4.366625
1783962861.3761,10:14:21.376,14,false,0.695729,-0.063904,0.00177,0.715454,0.098634,0.086915,-1.01564,0.735131,-38.062982,-4.423439
1783962861.4073,10:14:21.407,15,false,0.695985,-0.063843,0.00177,0.71521,0.085939,0.090333,-1.008804,0.691525,-38.069914,-4.399803
1783962861.4386,10:14:21.438,16,false,0.69586,-0.063843,0.00177,0.715332,0.096681,0.090822,-1.009781,0.771911,-38.076152,-4.303761
1783962861.4697,10:14:21.469,17,false,0.695797,-0.063843,0.001831,0.715393,0.093751,0.085939,-1.01857,0.739582,-38.021951,-4.351908
1783962861.5009,10:14:21.500,18,false,0.695923,-0.063843,0.00177,0.715271,0.102541,0.089845,-1.015152,0.665623,-38.062893,-4.380286
1783962861.532,10:14:21.532,19,false,0.695985,-0.063843,0.00177,0.71521,0.101564,0.092775,-1.014664,0.763553,-38.159556,-4.375919
1783962861.5632,10:14:21.563,20,false,0.695855,-0.063904,0.001648,0.715332,0.091798,0.083986,-1.017105,0.672244,-38.201692,-4.371988
1783962861.5943,10:14:21.594,21,false,0.695986,-0.063843,0.001648,0.71521,0.092775,0.092287,-1.01857,0.649881,-38.209706,-4.368451
1783962861.6254,10:14:21.625,22,false,0.696054,-0.063782,0.001648,0.715149,0.103517,0.080079,-1.012222,0.704524,-38.14215,-4.410129
1783962861.6566,10:14:21.656,23,false,0.696185,-0.063721,0.001709,0.715027,0.095216,0.072755,-1.012222,0.678933,-38.156118,-4.37287
1783962861.6877,10:14:21.687,24,false,0.69594,-0.06366,0.001587,0.715271,0.089357,0.08838,-1.022965,0.73067,-38.198597,-4.444013
1783962861.7189,10:14:21.718,25,false,0.695997,-0.063721,0.001648,0.71521,0.109377,0.090333,-1.016617,0.702465,-38.236829,-4.433273
1783962861.75,10:14:21.750,26,false,0.696179,-0.063782,0.001709,0.715027,0.093263,0.084962,-1.012222,0.67708,-38.241329,-4.423607
1783962861.7811,10:14:21.781,27,false,0.696179,-0.063782,0.001709,0.715027,0.092287,0.078614,-1.01857,0.684141,-38.110795,-4.474723
1783962861.8125,10:14:21.812,28,false,0.696117,-0.063782,0.001709,0.715088,0.095705,0.082033,-1.013199,0.690496,-38.187714,-4.445959
1783962861.8438,10:14:21.843,29,false,0.696316,-0.06366,0.00177,0.714905,0.095705,0.084474,-1.006851,0.606493,-38.152265,-4.405117
1783962861.8752,10:14:21.875,30,false,0.696378,-0.06366,0.001709,0.714844,0.086915,0.099611,-1.017105,0.65052,-38.284853,-4.383312
1783962861.9065,10:14:21.906,31,false,0.696065,-0.06366,0.001709,0.715149,0.090822,0.084474,-1.025895,0.764914,-38.120058,-4.28892
1783962861.9378,10:14:21.937,0,false,0.695552,-0.063782,0.001709,0.715637,0.097658,0.085939,-1.017105,0.808054,-38.136236,-4.263781
1783962861.9692,10:14:21.969,1,false,0.695615,-0.063782,0.001709,0.715576,0.080568,0.076661,-1.023941,0.712295,-38.150796,-4.211249
1783962862.0005,10:14:22.000,2,false,0.695877,-0.06366,0.00177,0.715332,0.087404,0.078126,-1.016129,0.656019,-38.1639,-4.119109
1783962862.0319,10:14:22.031,3,false,0.696002,-0.06366,0.001831,0.71521,0.103029,0.101076,-1.016129,0.665186,-38.190647,-4.125905
1783962862.0632,10:14:22.063,4,false,0.695997,-0.063721,0.00177,0.71521,0.093263,0.086427,-1.016617,0.688391,-38.304443,-4.042299
1783962862.0946,10:14:22.094,5,false,0.696185,-0.063721,0.00177,0.715027,0.09131,0.089357,-1.007828,0.649459,-38.361997,-3.982008
1783962862.1259,10:14:22.125,6,false,0.696304,-0.063782,0.001831,0.714905,0.09131,0.090333,-1.013687,0.554606,-38.473612,-3.972607
1783962862.1572,10:14:22.157,7,false,0.696241,-0.063782,0.001892,0.714966,0.075685,0.083986,-1.00441,0.514099,-38.409572,-3.9791
1783962862.1884,10:14:22.188,8,false,0.696372,-0.063721,0.001892,0.714844,0.099123,0.083009,-1.012711,0.552412,-38.396798,-4.059713
1783962862.2195,10:14:22.219,9,false,0.695996,-0.063721,0.001831,0.71521,0.097169,0.087892,-1.016129,0.646709,-38.400256,-3.937865
1783962862.2507,10:14:22.250,10,false,0.695934,-0.063721,0.001831,0.715271,0.105959,0.098146,-1.019547,0.656808,-38.298691,-4.037555
1783962862.2818,10:14:22.281,11,false,0.695866,-0.063782,0.00177,0.715332,0.093263,0.084474,-1.018082,0.710758,-38.326913,-4.007645
1783962862.3129,10:14:22.312,12,false,0.695615,-0.063782,0.001709,0.715576,0.091798,0.083986,-1.016617,0.863989,-38.337359,-4.175127
1783962862.3441,10:14:22.344,13,false,0.695746,-0.063721,0.001709,0.715454,0.092775,0.083009,-1.012711,0.822452,-38.286945,-4.236137
1783962862.3752,10:14:22.375,14,false,0.6955,-0.06366,0.001648,0.715698,0.094728,0.090333,-1.00734,0.859838,-38.361203,-4.216277
1783962862.4064,10:14:22.406,15,false,0.695489,-0.063782,0.001648,0.715698,0.097658,0.104005,-1.00734,0.938346,-38.353266,-4.228311
1783962862.4375,10:14:22.437,16,false,0.695238,-0.063782,0.001587,0.715942,0.099123,0.07715,-1.014176,0.919281,-38.435846,-4.269049
1783962862.4686,10:14:22.468,17,false,0.695112,-0.063782,0.001526,0.716064,0.102541,0.07715,-1.009293,0.917076,-38.420445,-4.171128
1783962862.4998,10:14:22.499,18,false,0.694987,-0.063782,0.001526,0.716187,0.09131,0.09131,-1.023453,0.98986,-38.361722,-4.262446
1783962862.5309,10:14:22.530,19,false,0.695249,-0.06366,0.001526,0.715942,0.106447,0.079591,-1.018082,0.920782,-38.368687,-4.404448
1783962862.5621,10:14:22.562,20,false,0.695375,-0.06366,0.001587,0.71582,0.097169,0.084474,-1.007828,0.81375,-38.31514,-4.517295
1783962862.5934,10:14:22.593,21,false,0.695124,-0.06366,0.001343,0.716064,0.09424,0.104005,-1.017105,0.822098,-38.266948,-4.499227
1783962862.6247,10:14:22.624,22,false,0.694987,-0.063782,0.001526,0.716187,0.109865,0.099123,-1.00441,0.814657,-38.35816,-4.438104
1783962862.6561,10:14:22.656,23,false,0.694792,-0.063843,0.001709,0.71637,0.100099,0.081544,-1.017105,0.822915,-38.500066,-4.427955
1783962862.6874,10:14:22.687,24,false,0.694679,-0.063721,0.001038,0.716492,0.099123,0.082033,-1.013199,0.920069,-38.567966,-4.373959
1783962862.7188,10:14:22.718,25,false,0.694672,-0.063782,0.001587,0.716492,0.115724,0.072267,-1.017105,0.977601,-38.524399,-4.325363
1783962862.7501,10:14:22.750,26,false,0.694678,-0.063721,0.001282,0.716492,0.086915,0.104982,-1.021012,0.95461,-38.515096,-4.461073
1783962862.7815,10:14:22.781,27,false,0.694747,-0.06366,0.001099,0.716431,0.084962,0.096193,-0.999527,0.874103,-38.49177,-4.34395
1783962862.8128,10:14:22.812,28,false,0.694746,-0.06366,0.001404,0.716431,0.093751,0.082033,-1.015152,0.8166,-38.560499,-4.373124
1783962862.8441,10:14:22.844,29,false,0.69501,-0.063538,0.000977,0.716187,0.088869,0.093751,-1.014664,0.809709,-38.517679,-4.354519
1783962862.8755,10:14:22.875,30,false,0.695004,-0.063599,0.001221,0.716187,0.115236,0.086427,-1.017594,0.848369,-38.494094,-4.39759
1783962862.9066,10:14:22.906,31,false,0.695119,-0.063721,0.000916,0.716064,0.092775,0.096681,-1.009781,0.778486,-38.398099,-4.286816
1783962862.938,10:14:22.938,0,false,0.695113,-0.063782,0.001465,0.716064,0.178714,0.052247,-1.065934,0.730545,-38.251888,-4.097396
1783962862.9691,10:14:22.969,1,false,0.695243,-0.063721,0.001892,0.715942,0.09131,0.092775,-0.811048,0.642537,-38.329652,-4.121318
1783962863.0002,10:14:23.000,2,false,0.695474,-0.063965,0.000427,0.715698,0.101564,0.095216,-1.045426,0.608191,-38.384686,-4.097986
1783962863.0314,10:14:23.031,3,false,0.695248,-0.064331,0.002319,0.715881,0.130861,0.0542,-0.948257,0.622141,-38.434216,-4.032125
1783962863.0625,10:14:23.062,4,false,0.695594,-0.062622,0.001709,0.715698,0.038575,0.062013,-1.028824,0.604788,-38.493747,-4.062574
1783962863.0937,10:14:23.093,5,false,0.695633,-0.063599,0.000671,0.715576,0.06006,0.086427,-1.016129,0.589171,-38.472556,-4.164748
1783962863.1248,10:14:23.124,6,false,0.695161,-0.0625,0.00293,0.716125,0.120607,0.056641,-1.017105,0.455485,-38.573114,-4.062303
1783962863.1559,10:14:23.155,7,false,0.695381,-0.063599,0.001404,0.71582,0.088869,0.137697,-0.911635,0.589382,-38.633709,-4.14955
1783962863.1871,10:14:23.187,8,false,0.695673,-0.063843,0.001038,0.715515,0.09131,0.115236,-1.042496,0.575306,-38.598522,-4.243025
1783962863.2182,10:14:23.218,9,false,0.695591,-0.064026,0.002258,0.715576,0.095216,0.070802,-1.01857,0.637406,-38.521991,-4.297246
1783962863.2494,10:14:23.249,10,false,0.695873,-0.063721,0.001099,0.715332,0.082521,0.064942,-1.023453,0.678342,-38.587699,-4.360998
1783962863.2805,10:14:23.280,11,false,0.695591,-0.063354,0.001831,0.715637,0.078126,0.067872,-1.003922,0.715185,-38.676743,-4.418375
1783962863.3116,10:14:23.311,12,false,0.695886,-0.062866,0.00177,0.715393,0.081544,0.078614,-1.018082,0.643666,-38.726975,-4.470014
1783962863.343,10:14:23.343,13,false,0.696231,-0.063232,0.00116,0.715027,0.121096,0.117678,-0.996597,0.5793,-38.742276,-4.591259
1783962863.3743,10:14:23.374,14,false,0.695952,-0.064209,0.001831,0.71521,0.132815,0.123049,-1.027848,0.536324,-38.651371,-4.610656
1783962863.4057,10:14:23.405,15,false,0.696072,-0.06427,0.001587,0.715088,0.093263,0.08838,-1.009293,0.55746,-38.674232,-4.568298
1783962863.437,10:14:23.437,16,false,0.696414,-0.063965,0.001465,0.714783,0.07129,0.051759,-1.033707,0.606391,-38.620039,-4.455406
1783962863.4684,10:14:23.468,17,false,0.696344,-0.063354,0.001709,0.714905,0.07129,0.05127,-1.006363,0.456029,-38.466588,-4.443527
1783962863.4997,10:14:23.499,18,false,0.696423,-0.063171,0.00177,0.714844,0.104005,0.079591,-1.010269,0.589872,-38.463066,-4.417882
1783962863.531,10:14:23.531,19,false,0.69615,-0.063416,0.00177,0.715088,0.107912,0.103517,-1.021012,0.605654,-38.429989,-4.320032
1783962863.5624,10:14:23.562,20,false,0.696123,-0.063721,0.001526,0.715088,0.104005,0.112795,-1.0215,0.649766,-38.504897,-4.231967
1783962863.5937,10:14:23.593,21,false,0.69585,-0.063965,0.001343,0.715332,0.09424,0.081056,-1.019547,0.614697,-38.647083,-4.27234
1783962863.6251,10:14:23.625,22,false,0.695804,-0.063782,0.001343,0.715393,0.084474,0.065919,-1.011246,0.657904,-38.625512,-4.308675
1783962863.6564,10:14:23.656,23,false,0.695911,-0.063293,0.001465,0.715332,0.072755,0.065919,-1.017594,0.592114,-38.57619,-4.221746
1783962863.6877,10:14:23.687,24,false,0.695791,-0.063232,0.001587,0.715454,0.097658,0.094728,-1.011246,0.697395,-38.501893,-4.278094
1783962863.7191,10:14:23.719,25,false,0.695649,-0.063416,0.001343,0.715576,0.095216,0.111818,-1.003433,0.702424,-38.494841,-4.373669
1783962863.7502,10:14:23.750,26,false,0.695239,-0.063782,0.00116,0.715942,0.104005,0.098146,-1.008316,0.871443,-38.503448,-4.414825
1783962863.7814,10:14:23.781,27,false,0.695176,-0.063782,0.00116,0.716003,0.099611,0.093751,-1.014664,0.963745,-38.466333,-4.436912
1783962863.8125,10:14:23.812,28,false,0.695056,-0.063721,0.001221,0.716125,0.105959,0.056641,-1.003922,0.94214,-38.507698,-4.38202
1783962863.8437,10:14:23.843,29,false,0.695078,-0.063477,0.00116,0.716125,0.080568,0.085451,-1.026383,0.922695,-38.604742,-4.18308
1783962863.8748,10:14:23.874,30,false,0.694827,-0.063477,0.001099,0.71637,0.098146,0.095216,-1.021988,0.979964,-38.512636,-4.153572
1783962863.9059,10:14:23.905,31,false,0.694736,-0.063782,0.000977,0.716431,0.096681,0.104494,-1.010758,0.956737,-38.429741,-4.306461
1783962863.9371,10:14:23.937,0,false,0.694794,-0.063843,0.000793,0.71637,0.104494,0.102052,-1.013687,0.846109,-38.444858,-4.24966
1783962863.9682,10:14:23.968,1,false,0.695171,-0.063843,0.001038,0.716003,0.091798,0.075685,-1.017105,0.791406,-38.548186,-4.288264
1783962863.9993,10:14:23.999,2,false,0.695256,-0.063599,0.001038,0.715942,0.08838,0.055665,-1.012711,0.891711,-38.506597,-4.278145
1783962864.0305,10:14:24.030,3,false,0.695084,-0.063416,0.000977,0.716125,0.091798,0.085451,-1.015152,0.847402,-38.514028,-4.149407
1783962864.0616,10:14:24.061,4,false,0.695136,-0.063538,0.001038,0.716064,0.097658,0.106447,-1.010758,0.837431,-38.550624,-4.227943
1783962864.093,10:14:24.093,5,false,0.695319,-0.063599,0.000732,0.715881,0.091798,0.115724,-1.012222,0.843411,-38.553653,-4.134133
1783962864.1243,10:14:24.124,6,false,0.695319,-0.063599,0.000916,0.715881,0.101564,0.069337,-1.015152,0.803931,-38.556379,-4.124474
1783962864.1557,10:14:24.155,7,false,0.695262,-0.063538,0.000854,0.715942,0.081544,0.087404,-1.014664,0.88803,-38.484063,-4.085872
1783962864.187,10:14:24.187,8,false,0.694833,-0.063416,0.000793,0.71637,0.099123,0.075196,-1.009781,1.068397,-38.46384,-4.110947
1783962864.2183,10:14:24.218,9,false,0.695084,-0.063416,0.001038,0.716125,0.095216,0.098146,-1.016617,1.036326,-38.505455,-4.118559
1783962864.2497,10:14:24.249,10,false,0.695073,-0.063538,0.000854,0.716125,0.098634,0.097169,-1.014176,0.977555,-38.513,-4.215134
1783962864.281,10:14:24.281,11,false,0.695262,-0.063538,0.000793,0.715942,0.097658,0.086915,-1.010758,0.924661,-38.564653,-4.197374
1783962864.3124,10:14:24.312,12,false,0.695324,-0.063538,0.000854,0.715881,0.087892,0.079591,-1.016129,0.981733,-38.626094,-4.196345
1783962864.3437,10:14:24.343,13,false,0.695398,-0.063416,0.000916,0.71582,0.085939,0.090333,-1.019059,0.898514,-38.472037,-4.210371
1783962864.3751,10:14:24.375,14,false,0.695524,-0.063416,0.000916,0.715698,0.104494,0.086915,-1.00734,0.793709,-38.453017,-4.118319
1783962864.4064,10:14:24.406,15,false,0.695644,-0.063477,0.000977,0.715576,0.101564,0.098634,-1.010758,0.804061,-38.391037,-4.259779
1783962864.4377,10:14:24.437,16,false,0.695387,-0.063538,0.000977,0.71582,0.099123,0.087404,-1.002945,0.768516,-38.380117,-4.342232
1783962864.4691,10:14:24.469,17,false,0.69545,-0.063538,0.000977,0.715759,0.096193,0.086427,-1.007828,0.766434,-38.489919,-4.296809
1783962864.5002,10:14:24.500,18,false,0.69545,-0.063538,0.000977,0.715759,0.085451,0.087892,-1.021012,0.76456,-38.484065,-4.390512
1783962864.5314,10:14:24.531,19,false,0.695267,-0.063477,0.000916,0.715942,0.086427,0.085451,-1.0215,0.942319,-38.448888,-4.41503
1783962864.5625,10:14:24.562,20,false,0.695147,-0.063416,0.001099,0.716064,0.088869,0.079591,-1.016129,0.863041,-38.46209,-4.481958
1783962864.5936,10:14:24.593,21,false,0.695266,-0.063477,0.001343,0.715942,0.103029,0.083497,-1.009293,1.015998,-38.518834,-4.542192
1783962864.6248,10:14:24.624,22,false,0.695005,-0.063599,0.000854,0.716187,0.09424,0.106447,-1.013687,0.989168,-38.405411,-4.551542
1783962864.6559,10:14:24.655,23,false,0.695113,-0.063782,0.001221,0.716064,0.107912,0.077638,-1.019547,0.96502,-38.512684,-4.589865
1783962864.6871,10:14:24.687,24,false,0.695182,-0.063721,0.000977,0.716003,0.090822,0.086915,-1.018082,0.883472,-38.41483,-4.639309
1783962864.7182,10:14:24.718,25,false,0.695256,-0.063599,0.000916,0.715942,0.086427,0.072755,-1.019059,0.780171,-38.281899,-4.653901
1783962864.7493,10:14:24.749,26,false,0.695387,-0.063538,0.001343,0.71582,0.103029,0.083009,-1.010269,0.821785,-38.281893,-4.622172
1783962864.7805,10:14:24.780,27,false,0.695518,-0.063477,0.000977,0.715698,0.097169,0.091798,-1.022477,0.904098,-38.311795,-4.638478
1783962864.8116,10:14:24.811,28,false,0.69513,-0.063599,0.001282,0.716064,0.105959,0.101076,-1.012711,0.963227,-38.398522,-4.638199
1783962864.843,10:14:24.843,29,false,0.695244,-0.063721,0.001343,0.715942,0.099123,0.089845,-1.016617,0.881858,-38.416761,-4.652902
1783962864.8743,10:14:24.874,30,false,0.695439,-0.06366,0.000916,0.715759,0.083497,0.078126,-1.026383,0.868441,-38.522899,-4.576412
1783962864.9056,10:14:24.905,31,false,0.695312,-0.06366,0.001404,0.715881,0.103029,0.083497,-1.00734,0.901228,-38.5287,-4.627201
1783962864.937,10:14:24.937,0,false,0.695712,-0.063416,0.001099,0.715515,0.086427,0.076173,-1.01564,0.915782,-38.623644,-4.657958
1783962864.9683,10:14:24.968,1,false,0.695523,-0.063416,0.001282,0.715698,0.093263,0.093751,-1.012711,0.869065,-38.739001,-4.566008
1783962864.9997,10:14:24.999,2,false,0.695318,-0.063599,0.001404,0.715881,0.110842,0.097169,-1.003922,0.886836,-38.633469,-4.528115
1783962865.031,10:14:25.031,3,false,0.695124,-0.06366,0.001099,0.716064,0.095216,0.092287,-1.012222,0.902829,-38.583352,-4.464103
1783962865.0624,10:14:25.062,4,false,0.694747,-0.06366,0.001221,0.716431,0.089357,0.082521,-1.025406,1.111623,-38.493385,-4.481262
1783962865.0937,10:14:25.093,5,false,0.694575,-0.063477,0.00116,0.716614,0.090822,0.088869,-1.008316,1.164953,-38.546999,-4.541566
1783962865.125,10:14:25.125,6,false,0.694271,-0.063354,0.00116,0.716919,0.096193,0.078614,-1.028336,1.242858,-38.595252,-4.521071
1783962865.1564,10:14:25.156,7,false,0.694391,-0.063416,0.00116,0.716797,0.103517,0.09424,-1.012711,1.118572,-38.653633,-4.412902
1783962865.1877,10:14:25.187,8,false,0.694197,-0.063477,0.000854,0.71698,0.104494,0.1084,-1.015152,1.036622,-38.631407,-4.315551
1783962865.2189,10:14:25.218,9,false,0.694364,-0.063721,0.001099,0.716797,0.109377,0.096681,-1.017594,1.007729,-38.71608,-4.40738
1783962865.25,10:14:25.250,10,false,0.694054,-0.06366,0.001038,0.717102,0.089357,0.086915,-1.012222,1.146218,-38.777333,-4.549842
1783962865.2811,10:14:25.281,11,false,0.694248,-0.063599,0.001221,0.716919,0.097658,0.086915,-1.01857,1.121319,-38.682921,-4.528519
1783962865.3123,10:14:25.312,12,false,0.694065,-0.063538,0.00116,0.717102,0.099611,0.087404,-1.010269,1.188633,-38.657766,-4.539236
1783962865.3434,10:14:25.343,13,false,0.693865,-0.06366,0.000977,0.717285,0.100099,0.093751,-1.015152,1.159493,-38.694942,-4.638605
1783962865.3746,10:14:25.374,14,false,0.69398,-0.063782,0.00116,0.717163,0.098146,0.100587,-1.01857,1.013636,-38.713447,-4.458867
1783962865.4057,10:14:25.405,15,false,0.693979,-0.063782,0.001221,0.717163,0.085451,0.098146,-1.021012,0.987042,-38.655332,-4.431688
1783962865.4368,10:14:25.436,16,false,0.693985,-0.063721,0.001221,0.717163,0.080079,0.077638,-1.025406,1.067784,-38.603028,-4.511904
1783964714.6329,10:45:14.632,27,false,0.32571,-0.50116,0.231262,0.767639,0.920424,-0.017578,-0.383795,-21.259386,-53.511687,8.658018
1783964714.664,10:45:14.664,28,false,0.326694,-0.501343,0.230286,0.767395,0.920424,-0.010254,-0.387213,-21.421385,-53.394363,8.674493
1783964714.6952,10:45:14.695,29,false,0.327879,-0.500549,0.23053,0.767334,0.934096,-0.012696,-0.388678,-21.641953,-53.333632,8.584643
1783964714.7263,10:45:14.726,30,false,0.328075,-0.499878,0.230896,0.767578,0.927749,-0.009277,-0.379889,-21.526434,-53.114483,8.563594
1783964714.7574,10:45:14.757,31,false,0.329129,-0.498901,0.231506,0.767578,0.942397,-0.016114,-0.403326,-21.452375,-53.021925,8.574557
1783964714.7886,10:45:14.788,0,false,0.329612,-0.498657,0.23175,0.767456,0.946304,-0.011719,-0.407233,-21.430583,-53.013393,8.614332
1783964714.8197,10:45:14.819,1,false,0.330597,-0.49823,0.231873,0.767273,0.965835,-0.020996,-0.414557,-21.455832,-52.990759,8.455729
1783964714.8509,10:45:14.850,2,false,0.331089,-0.497986,0.2323,0.76709,0.928237,-0.015137,-0.403326,-21.433694,-52.910574,8.447572
1783964714.8822,10:45:14.882,3,false,0.331019,-0.497742,0.232117,0.767334,0.94728,-0.016114,-0.409186,-21.488539,-52.8085,8.500045
1783964714.9135,10:45:14.913,4,false,0.330726,-0.497986,0.231201,0.767578,0.94728,-0.003906,-0.395026,-21.5379,-52.82131,8.442594
1783964714.9449,10:45:14.944,5,false,0.330699,-0.497986,0.230835,0.7677,0.946792,-0.005371,-0.404303,-21.582325,-52.832839,8.495565
1783964714.9762,10:45:14.976,6,false,0.329777,-0.498718,0.229553,0.768005,0.930678,-0.009766,-0.395026,-21.577445,-52.693676,8.483424
1783964715.0076,10:45:15.007,7,false,0.328577,-0.499329,0.228516,0.768433,0.90724,-0.013184,-0.390143,-21.647823,-52.613292,8.502404
1783964715.0389,10:45:15.038,8,false,0.326914,-0.499634,0.227356,0.769287,0.93312,-0.026856,-0.416022,-21.606486,-52.720391,8.444717
