Timestamp,Local time,Counter,Interpolated,Accelerometer X,Accelerometer Y,Accelerometer Z,Magnetometer X,Magnetometer Y,Magnetometer Z,Quaternion 0,Quaternion 1,Quaternion 2,Quaternion 3
1783977926.7743,14:25:26.774,30,false,0.384041,-0.535889,0.309753,0.68512,0.992203,-0.062013,-0.229984,-27.219344,-55.18443,15.801195
1783977926.8054,14:25:26.805,31,false,0.385996,-0.536438,0.306763,0.684937,1.002457,-0.040528,-0.237797,-27.219009,-55.064324,15.731413
1783977926.8367,14:25:26.836,0,false,0.386729,-0.536926,0.305664,0.684631,1.008316,-0.032715,-0.240726,-27.158892,-54.941274,15.683564
1783977926.8681,14:25:26.868,1,false,0.39082,-0.539063,0.302002,0.682251,0.979995,-0.02295,-0.252445,-27.179556,-54.83053,15.715268
1783977926.8994,14:25:26.899,2,false,0.394121,-0.541016,0.299438,0.679932,1.00441,0.004395,-0.251957,-27.287876,-54.745814,15.683987
1783977926.9308,14:25:26.930,3,false,0.39839,-0.54425,0.296204,0.67627,0.965835,0.025879,-0.249516,-27.190965,-54.654615,15.64088
1783977926.9621,14:25:26.962,4,false,0.401424,-0.545776,0.294861,0.673828,0.9673,0.05713,-0.221683,-27.253283,-54.572537,15.602084
1783977926.9934,14:25:26.993,5,false,0.403979,-0.547363,0.293579,0.67157,0.972671,0.069337,-0.227543,-27.324323,-54.304266,15.522306
1783977927.0246,14:25:27.024,6,false,0.406655,-0.549194,0.292175,0.669067,0.938979,0.097658,-0.21387,-27.403213,-54.032915,15.644906
1783977927.0557,14:25:27.055,7,false,0.408882,-0.549438,0.29126,0.667908,0.966812,0.111818,-0.228519,-27.474214,-53.908329,15.605707
1783977927.0869,14:25:27.086,8,false,0.410333,-0.549744,0.290039,0.667297,0.974136,0.120119,-0.23389,-27.612884,-53.601802,15.570428
1783977927.118,14:25:27.118,9,false,0.411026,-0.549805,0.28894,0.667297,0.994644,0.118654,-0.238773,-27.662918,-53.400697,15.508769
1783977927.1493,14:25:27.149,10,false,0.411046,-0.549866,0.288513,0.667419,0.971206,0.104005,-0.238773,-27.692994,-53.354288,15.46823
1783977927.1805,14:25:27.180,11,false,0.411239,-0.549744,0.28833,0.66748,0.985855,0.07422,-0.245609,-27.82474,-53.16298,15.431745
1783977927.2116,14:25:27.211,12,false,0.41148,-0.5495,0.288452,0.66748,0.993668,0.064454,-0.247562,-27.913404,-53.035665,15.428816
1783977927.243,14:25:27.243,13,false,0.411937,-0.549255,0.289673,0.66687,0.989761,0.07129,-0.229984,-28.008155,-53.085574,15.411227
1783977927.2743,14:25:27.274,14,false,0.412046,-0.54895,0.291077,0.666443,0.965347,0.073243,-0.229007,-28.078477,-53.145446,15.559888
1783977927.3056,14:25:27.305,15,false,0.412385,-0.548279,0.291443,0.666626,0.979507,0.085939,-0.224613,-28.171674,-52.975023,15.48433
1783977927.337,14:25:27.337,16,false,0.412341,-0.547913,0.291077,0.667114,0.978042,0.069337,-0.242191,-28.076106,-52.941272,15.625681
1783977927.3683,14:25:27.368,17,false,0.412123,-0.547546,0.290955,0.667603,0.992691,0.07422,-0.237797,-27.930279,-52.851082,15.737943
1783977927.3997,14:25:27.399,18,false,0.410979,-0.547363,0.290955,0.668457,0.971695,0.036133,-0.233402,-27.948573,-52.84468,15.629625
1783977927.431,14:25:27.431,19,false,0.410331,-0.547058,0.291321,0.668945,0.994644,0.047364,-0.245609,-28.024854,-52.704333,15.472324
1783977927.4621,14:25:27.462,20,false,0.4091,-0.546814,0.291687,0.669739,0.979019,0.038087,-0.231449,-28.168275,-52.652791,15.405522
1783977927.4933,14:25:27.493,21,false,0.407753,-0.546326,0.292664,0.670532,0.993179,0.038087,-0.230961,-28.16277,-52.696125,15.435123
1783977927.5244,14:25:27.524,22,false,0.406976,-0.546143,0.292969,0.671021,0.982925,0.03418,-0.226566,-28.053138,-52.660357,15.521579
1783977927.5556,14:25:27.555,23,false,0.405911,-0.546021,0.293274,0.671631,1.000015,0.03711,-0.225589,-27.924562,-52.717889,15.479759
1783977927.5869,14:25:27.586,24,false,0.40478,-0.546021,0.293579,0.67218,0.990738,0.03418,-0.224613,-27.868659,-52.650037,15.501937
1783977927.6182,14:25:27.618,25,false,0.404032,-0.545959,0.293884,0.672546,0.989273,0.033204,-0.235355,-27.878161,-52.603924,15.432173
1783977927.6496,14:25:27.649,26,false,0.402912,-0.545959,0.293884,0.673218,0.987808,0.034668,-0.217777,-27.841852,-52.637191,15.474063
1783977927.6809,14:25:27.680,27,false,0.402491,-0.545959,0.293762,0.673523,0.989761,0.021485,-0.238773,-27.854035,-52.69704,15.541672
1783977927.7123,14:25:27.712,28,false,0.402574,-0.545776,0.294128,0.673462,0.996109,0.036622,-0.226566,-27.805185,-52.810719,15.587566
1783977927.7436,14:25:27.743,29,false,0.402574,-0.545776,0.294128,0.673462,0.99855,0.03125,-0.224125,-27.850942,-52.823307,15.613916
1783977927.7748,14:25:27.774,30,false,0.402606,-0.545837,0.29425,0.67334,0.973648,0.047852,-0.226566,-27.787447,-52.939313,15.637632
1783977927.8059,14:25:27.805,31,false,0.402306,-0.545715,0.294189,0.673645,0.984878,0.042969,-0.226566,-27.670486,-52.879226,15.67393
1783977927.837,14:25:27.837,0,false,0.401857,-0.545593,0.294189,0.674011,0.980484,0.04004,-0.247562,-27.699806,-52.855056,15.721552
1783977927.8682,14:25:27.868,1,false,0.401268,-0.545532,0.294128,0.674438,0.986831,0.047852,-0.245609,-27.666378,-52.878164,15.644781
1783977927.8993,14:25:27.899,2,false,0.400747,-0.54541,0.293945,0.674927,1.000504,0.036133,-0.228031,-27.696109,-53.033546,15.590641
1783977927.9305,14:25:27.930,3,false,0.398675,-0.545288,0.293762,0.676331,0.969741,0.046876,-0.232914,-27.782682,-53.083666,15.60173
1783977927.9616,14:25:27.961,4,false,0.397585,-0.545593,0.292419,0.677307,0.976089,0.014649,-0.229007,-27.651243,-53.143729,15.447218
1783977927.9929,14:25:27.992,5,false,0.39672,-0.545532,0.291443,0.678284,0.990738,0.041993,-0.233402,-27.667534,-53.108062,15.502557
1783977928.0243,14:25:28.024,6,false,0.395062,-0.545898,0.289734,0.679688,0.992691,0.020508,-0.233402,-27.577518,-53.090916,15.357963
1783977928.0556,14:25:28.055,7,false,0.394441,-0.546448,0.287964,0.680359,0.971695,0.043458,-0.237308,-27.631088,-53.135299,15.422227
1783977928.087,14:25:28.087,8,false,0.392641,-0.547485,0.284241,0.682129,0.994644,0.059083,-0.251469,-27.679302,-53.279922,15.584743
1783977928.1183,14:25:28.118,9,false,0.392033,-0.547729,0.283142,0.682739,0.97023,0.028809,-0.249027,-27.588109,-53.140912,15.431929
1783977928.1496,14:25:28.149,10,false,0.389998,-0.548828,0.278931,0.684753,1.00441,0.015625,-0.251469,-27.550897,-53.19525,15.324305
1783977928.1808,14:25:28.180,11,false,0.388703,-0.5495,0.277161,0.685669,1.01564,0.019043,-0.259281,-27.472545,-53.169385,15.122767
1783977928.2119,14:25:28.211,12,false,0.387109,-0.550049,0.276489,0.686401,0.977066,0.020508,-0.249516,-27.506705,-53.131153,14.926428
1783977928.2431,14:25:28.243,13,false,0.387131,-0.550293,0.276123,0.68634,1.003433,0.035157,-0.238773,-27.477634,-53.111697,15.018892
1783977928.2742,14:25:28.274,14,false,0.387194,-0.550659,0.276367,0.685913,0.974136,0.048341,-0.245609,-27.45147,-53.094187,14.847895
1783977928.3053,14:25:28.305,15,false,0.386948,-0.550659,0.277466,0.685608,0.977554,0.052247,-0.243656,-27.487737,-52.943844,14.828582
1783977928.3365,14:25:28.336,16,false,0.386644,-0.550842,0.277527,0.685608,0.970718,0.057618,-0.230472,-27.400747,-53.032842,14.8112
1783977928.3678,14:25:28.367,17,false,0.386559,-0.551208,0.276917,0.685608,0.976577,0.055665,-0.23975,-27.262641,-52.918541,14.840418
1783977928.3992,14:25:28.399,18,false,0.386105,-0.551697,0.276123,0.685791,1.000015,0.036622,-0.247074,-27.168253,-52.905393,14.747084
1783977928.4305,14:25:28.430,19,false,0.385562,-0.552002,0.275818,0.685974,1.00441,0.025879,-0.237308,-27.053396,-52.729068,14.707944
1783977928.4618,14:25:28.461,20,false,0.385145,-0.552612,0.275024,0.686035,0.988785,0.029786,-0.226566,-27.024794,-52.570375,14.672718
1783977928.4932,14:25:28.493,21,false,0.385166,-0.552795,0.27417,0.686218,0.998062,0.040528,-0.232914,-27.208406,-52.592043,14.596154
1783977928.5243,14:25:28.524,22,false,0.384794,-0.552917,0.273987,0.686401,0.99855,0.042969,-0.251957,-27.224118,-52.566683,14.527246
1783977928.5555,14:25:28.555,23,false,0.38412,-0.552856,0.274597,0.686584,0.983413,0.038087,-0.248051,-27.313029,-52.46909,14.644674
1783977928.5866,14:25:28.586,24,false,0.383725,-0.55304,0.27478,0.686584,0.977066,0.036622,-0.240238,-27.228556,-52.515841,14.615776
1783977928.6177,14:25:28.617,25,false,0.383394,-0.553223,0.275635,0.686279,0.985855,0.040528,-0.230961,-27.331976,-52.528009,14.455182
1783977928.6489,14:25:28.648,26,false,0.383196,-0.553284,0.27594,0.686218,0.976577,0.036622,-0.232914,-27.320378,-52.494099,14.54991
1783977928.68,14:25:28.680,27,false,0.382817,-0.553467,0.276855,0.685913,0.985367,0.050294,-0.227054,-27.459478,-52.538349,14.754795
1783977928.7112,14:25:28.711,28,false,0.382286,-0.553528,0.277466,0.685913,0.973648,0.046876,-0.224613,-27.539806,-52.473497,14.789654
1783977928.7425,14:25:28.742,29,false,0.381491,-0.553284,0.278442,0.686157,0.991226,0.03711,-0.232425,-27.56724,-52.459992,14.731303
1783977928.7738,14:25:28.773,30,false,0.381311,-0.553162,0.278931,0.686157,0.989273,0.030274,-0.229007,-27.606884,-52.432883,14.798419
1783977928.8052,14:25:28.805,31,false,0.380999,-0.553223,0.279236,0.686157,0.999527,0.043458,-0.235843,-27.43321,-52.498209,14.813961
1783977928.8365,14:25:28.836,0,false,0.380567,-0.552979,0.280457,0.686096,0.988296,0.027832,-0.23389,-27.396535,-52.557002,14.902718
1783977928.8679,14:25:28.867,1,false,0.380271,-0.552734,0.281189,0.686157,0.997086,0.036622,-0.228031,-27.393434,-52.729546,14.833061
1783977928.899,14:25:28.899,2,false,0.380415,-0.552551,0.281799,0.685974,0.98439,0.02295,-0.231937,-27.435505,-52.735297,14.875047
1783977928.9304,14:25:28.930,3,false,0.38044,-0.552307,0.282837,0.68573,0.993179,0.024414,-0.226566,-27.443462,-52.72552,15.002557
1783977928.9617,14:25:28.961,4,false,0.380383,-0.552185,0.283447,0.685608,0.992203,0.043946,-0.235843,-27.525391,-52.746628,15.117316
1783977928.9928,14:25:28.992,5,false,0.380161,-0.552063,0.284424,0.685425,0.986343,0.019043,-0.234867,-27.554267,-52.750671,15.175738
1783977929.024,14:25:29.024,6,false,0.379902,-0.552002,0.285034,0.685364,0.999527,0.040528,-0.237308,-27.475578,-52.769264,15.19841
1783977929.0551,14:25:29.055,7,false,0.379284,-0.551941,0.285828,0.685425,0.982925,0.024903,-0.240238,-27.449619,-52.965443,15.188907
1783977929.0863,14:25:29.086,8,false,0.377347,-0.551819,0.287598,0.685852,0.974136,0.026368,-0.241215,-27.336533,-53.052282,15.090631
1783977929.1176,14:25:29.117,9,false,0.375662,-0.551636,0.288696,0.686462,0.988785,0.01709,-0.227054,-27.309525,-53.055667,14.972275
1783977929.1489,14:25:29.148,10,false,0.374028,-0.55127,0.289917,0.687134,0.977066,0.008789,-0.215335,-27.44971,-53.11853,15.015293
1783977929.1803,14:25:29.180,11,false,0.372723,-0.550781,0.291077,0.687744,0.977554,0.005371,-0.217777,-27.441292,-53.19006,15.039056
1783977929.2116,14:25:29.211,12,false,0.371207,-0.550232,0.292175,0.688538,1.000992,0.001953,-0.221683,-27.418762,-53.418929,15.120258
1783977929.243,14:25:29.243,13,false,0.370605,-0.549866,0.292908,0.688843,0.98732,-0.005371,-0.225589,-27.353624,-53.595004,15.11857
1783977929.2741,14:25:29.274,14,false,0.370053,-0.549072,0.294373,0.689148,0.989761,-0.006836,-0.22266,-27.489399,-53.559071,15.117051
1783977929.3052,14:25:29.305,15,false,0.369251,-0.548584,0.295288,0.689575,0.991714,-0.011719,-0.223148,-27.447104,-53.765993,15.10073
1783977929.3364,14:25:29.336,16,false,0.368696,-0.548157,0.296204,0.689819,0.982437,-0.010742,-0.220706,-27.409039,-53.742869,15.056133
1783977929.3675,14:25:29.367,17,false,0.367905,-0.548096,0.296448,0.690186,0.996109,-0.017578,-0.221683,-27.329919,-53.901503,14.971135
1783977929.3987,14:25:29.398,18,false,0.367692,-0.548096,0.29657,0.690247,0.99855,-0.018067,-0.22266,-27.33348,-53.999413,14.999313
1783977929.4298,14:25:29.429,19,false,0.367356,-0.548035,0.296814,0.690369,0.983413,-0.024414,-0.223636,-27.351639,-53.9679,15.00972
1783977929.4609,14:25:29.460,20,false,0.366928,-0.548157,0.296692,0.690552,0.980484,-0.014649,-0.229984,-27.427797,-53.999355,15.03404
1783977929.4921,14:25:29.492,21,false,0.366994,-0.548157,0.296753,0.690491,0.992203,-0.018067,-0.221195,-27.331847,-54.117387,15.011066
1783977929.5234,14:25:29.523,22,false,0.366649,-0.548157,0.296753,0.690674,0.979507,-0.012696,-0.229007,-27.260446,-54.089031,15.139928
1783977929.5548,14:25:29.554,23,false,0.366592,-0.548096,0.296936,0.690674,0.980484,-0.011719,-0.221683,-27.33077,-54.123326,15.136273
1783977929.5861,14:25:29.586,24,false,0.366545,-0.547852,0.297302,0.690735,0.979507,-0.020996,-0.22266,-27.124892,-54.154192,15.207753
1783977929.6174,14:25:29.617,25,false,0.366388,-0.547913,0.297241,0.690796,0.980972,-0.012696,-0.224125,-27.193818,-54.167017,15.287039
1783977929.6488,14:25:29.648,26,false,0.366365,-0.547729,0.297607,0.690796,0.985367,-0.018067,-0.218265,-27.181081,-54.313145,15.223812
1783977929.6799,14:25:29.679,27,false,0.366442,-0.547424,0.297791,0.690918,0.991714,-0.008789,-0.235843,-27.139711,-54.250259,15.181861
1783977929.7111,14:25:29.711,28,false,0.36644,-0.547546,0.297852,0.690796,1.000992,0.004395,-0.214359,-27.147339,-54.268432,15.144105
1783977929.7422,14:25:29.742,29,false,0.365934,-0.547852,0.297913,0.690796,0.985855,-0.02002,-0.224613,-27.154204,-54.359556,15.035356
1783977929.7733,14:25:29.773,30,false,0.365554,-0.547729,0.298462,0.690857,0.977066,-0.015137,-0.218265,-27.100567,-54.381752,14.997296
1783977929.8045,14:25:29.804,31,false,0.364984,-0.547668,0.298706,0.691101,0.98146,-0.019532,-0.22266,-27.067248,-54.386775,15.007905
1783977929.8358,14:25:29.835,0,false,0.36491,-0.547607,0.298767,0.691162,0.979995,-0.010254,-0.230472,-27.097076,-54.436158,15.107175
1783977929.867,14:25:29.867,1,false,0.364668,-0.547668,0.29895,0.691162,0.988785,-0.013184,-0.220218,-27.094014,-54.555371,15.12175
1783977929.8983,14:25:29.898,2,false,0.364311,-0.547729,0.299133,0.691223,0.982437,-0.032715,-0.215335,-27.121166,-54.483217,15.179728
1783977929.9296,14:25:29.929,3,false,0.364195,-0.547729,0.299133,0.691284,0.993668,-0.020996,-0.228519,-27.160556,-54.627632,15.067416
1783977929.961,14:25:29.961,4,false,0.36388,-0.547852,0.299011,0.691406,0.976577,-0.029786,-0.222171,-27.151146,-54.652928,15.130828
1783977929.9923,14:25:29.992,5,false,0.364158,-0.548218,0.298706,0.691101,0.988296,-0.018067,-0.22266,-27.142676,-54.720557,15.247714
1783977930.0237,14:25:30.023,6,false,0.365103,-0.548645,0.298462,0.690369,0.990249,-0.028809,-0.234867,-27.164962,-54.527207,15.188419
1783977930.055,14:25:30.055,7,false,0.3668,-0.549927,0.297546,0.688843,0.997086,-0.029786,-0.233402,-27.155111,-54.562546,15.23973
1783977930.0863,14:25:30.086,8,false,0.36751,-0.550415,0.29718,0.688232,0.992691,-0.020996,-0.223636,-27.101384,-54.384998,15.285911
1783977930.1175,14:25:30.117,9,false,0.370008,-0.551941,0.296753,0.685852,0.988785,-0.00293,-0.211429,-27.202567,-54.329881,15.357381
1783977930.1486,14:25:30.148,10,false,0.371257,-0.552856,0.296448,0.68457,0.983413,0.007813,-0.208988,-27.144094,-54.250368,15.391796
1783977930.1798,14:25:30.179,11,false,0.37278,-0.553528,0.295959,0.683411,0.986831,0.019532,-0.217777,-27.181192,-54.26853,15.392862
1783977930.2109,14:25:30.210,12,false,0.373427,-0.553772,0.295532,0.683044,0.98732,0.015137,-0.205081,-27.109903,-54.135336,15.513452
1783977930.242,14:25:30.242,13,false,0.373861,-0.553955,0.294922,0.682922,0.979507,0.014649,-0.211917,-27.210235,-54.150047,15.53226
1783977930.2734,14:25:30.273,14,false,0.374013,-0.554016,0.294189,0.683105,1.000015,0.006836,-0.216312,-27.165949,-54.103472,15.489372
1783977930.3047,14:25:30.304,15,false,0.373716,-0.554077,0.293884,0.68335,0.991226,0.004883,-0.218753,-27.245722,-53.986784,15.55545
1783977930.3361,14:25:30.336,16,false,0.37378,-0.554077,0.293945,0.683289,0.996597,0.023438,-0.200687,-27.467057,-54.061212,15.61492
1783977930.3674,14:25:30.367,17,false,0.373472,-0.554199,0.293823,0.683411,0.984878,0.011719,-0.223636,-27.456904,-53.888935,15.683397
1783977930.3988,14:25:30.398,18,false,0.373626,-0.554138,0.293884,0.68335,0.980484,0.012696,-0.201175,-27.507582,-53.823609,15.625395
1783977930.4299,14:25:30.429,19,false,0.373163,-0.554321,0.293701,0.683533,1.008804,0.015625,-0.209964,-27.508331,-53.764816,15.573193
1783977930.4612,14:25:30.461,20,false,0.37296,-0.554382,0.293701,0.683594,0.982925,0.003418,-0.217288,-27.56882,-53.876394,15.541166
1783977930.4924,14:25:30.492,21,false,0.372822,-0.554443,0.293762,0.683594,0.984878,-0.007324,-0.210452,-27.548491,-53.767461,15.557203
1783977930.5237,14:25:30.523,22,false,0.372667,-0.554504,0.293701,0.683655,0.979995,0.015137,-0.210941,-27.604964,-53.848867,15.571636
1783977930.5549,14:25:30.554,23,false,0.372411,-0.554688,0.293396,0.683777,0.992203,0.000977,-0.211917,-27.521205,-53.75764,15.704256
1783977930.586,14:25:30.586,24,false,0.372096,-0.554749,0.293396,0.683899,0.992691,0.006348,-0.21387,-27.445822,-53.705444,15.674076
1783977930.6173,14:25:30.617,25,false,0.372005,-0.55481,0.293396,0.683899,0.993668,0.008789,-0.219242,-27.527516,-53.808005,15.617007
1783977930.6487,14:25:30.648,26,false,0.372245,-0.554626,0.293579,0.683838,0.986343,0.004883,-0.213382,-27.496364,-53.825541,15.640413
1783977930.68,14:25:30.680,27,false,0.372138,-0.554688,0.293457,0.683899,0.999039,0.006348,-0.214359,-27.468326,-53.811416,15.58671
1783977930.7114,14:25:30.711,28,false,0.371882,-0.554871,0.293152,0.684021,0.983413,0.002441,-0.224613,-27.502908,-53.78375,15.493515
1783977930.7427,14:25:30.742,29,false,0.371635,-0.554993,0.293091,0.684082,0.998062,0.009277,-0.214359,-27.504124,-53.848573,15.379733
1783977930.7738,14:25:30.773,30,false,0.371459,-0.554993,0.29303,0.684204,0.998062,0.012207,-0.220706,-27.460357,-53.921868,15.367051
1783977930.805,14:25:30.805,31,false,0.371601,-0.555359,0.292725,0.68396,0.996597,0.001953,-0.208988,-27.465828,-53.97288,15.265915
1783977930.8361,14:25:30.836,0,false,0.371931,-0.555664,0.292297,0.683716,0.999527,0.012696,-0.210941,-27.515614,-53.944021,15.459015
1783977930.8673,14:25:30.867,1,false,0.372344,-0.55603,0.291931,0.68335,0.99855,0.002441,-0.213382,-27.500605,-53.933002,15.543082
1783977930.8984,14:25:30.898,2,false,0.373254,-0.556458,0.291382,0.682739,0.978531,0.005859,-0.218753,-27.502052,-53.938038,15.52902
1783977930.9295,14:25:30.929,3,false,0.374195,-0.556702,0.291138,0.682129,0.99855,0.003906,-0.203128,-27.473446,-53.867802,15.665902
1783977930.9607,14:25:30.960,4,false,0.374916,-0.557251,0.290588,0.681519,0.995132,0.019532,-0.209476,-27.462654,-53.714866,15.669465
1783977930.9918,14:25:30.991,5,false,0.37538,-0.557312,0.290588,0.681213,1.003433,0.018067,-0.210452,-27.587526,-53.816486,15.687626
1783977931.0232,14:25:31.023,6,false,0.376514,-0.557495,0.290771,0.680359,0.996597,0.015137,-0.211917,-27.535419,-53.743451,15.689017
1783977931.0545,14:25:31.054,7,false,0.377207,-0.557495,0.291016,0.679871,0.995621,0.025391,-0.208988,-27.488522,-53.752489,15.794945
1783977931.0858,14:25:31.085,8,false,0.378207,-0.557434,0.29126,0.67926,0.991714,0.024414,-0.213382,-27.550992,-53.730714,15.785604
1783977931.1172,14:25:31.117,9,false,0.378797,-0.557373,0.291321,0.678955,0.979995,0.016602,-0.218753,-27.592261,-53.726073,15.792151
1783977931.1485,14:25:31.148,10,false,0.379161,-0.557434,0.291016,0.678833,1.006851,0.023926,-0.212406,-27.659311,-53.677033,15.723274
1783977931.1799,14:25:31.179,11,false,0.379418,-0.557556,0.291016,0.678589,1.003433,0.031739,-0.204593,-27.629933,-53.617943,15.930453
1783977931.2112,14:25:31.211,12,false,0.379414,-0.557495,0.291138,0.678589,0.985855,0.03418,-0.204593,-27.618447,-53.579717,15.952423
1783977931.2423,14:25:31.242,13,false,0.379258,-0.557495,0.291199,0.67865,0.989273,0.019532,-0.215824,-27.65297,-53.620082,15.942288
1783977931.2737,14:25:31.273,14,false,0.379106,-0.557556,0.291138,0.678711,0.999527,0.03125,-0.205081,-27.489642,-53.521826,15.963074
1783977931.3048,14:25:31.304,15,false,0.378845,-0.557617,0.291077,0.678833,0.985367,0.024903,-0.212894,-27.611815,-53.56798,15.877105
1783977931.3362,14:25:31.336,16,false,0.378524,-0.557739,0.290833,0.679016,0.985367,0.007813,-0.211429,-27.661956,-53.519796,15.784778
1783977931.3675,14:25:31.367,17,false,0.378641,-0.557617,0.290771,0.679077,0.978531,0.027344,-0.210452,-27.602406,-53.47643,15.881131
1783977931.3989,14:25:31.398,18,false,0.378926,-0.557434,0.290466,0.679199,0.995621,0.027344,-0.204105,-27.728256,-53.362631,15.863171
1783977931.4302,14:25:31.430,19,false,0.379502,-0.557434,0.289856,0.679138,0.993668,0.026368,-0.216312,-27.901338,-53.29012,15.861961
1783977931.4615,14:25:31.461,20,false,0.379887,-0.557373,0.289612,0.679077,1.003433,0.020508,-0.224613,-28.012249,-53.329537,15.756195
1783977931.4929,14:25:31.492,21,false,0.380213,-0.557129,0.289368,0.679199,0.996109,0.014649,-0.208988,-27.887762,-53.46969,15.840452
1783977931.5242,14:25:31.524,22,false,0.380455,-0.557007,0.289429,0.679138,0.993179,0.033204,-0.210452,-28.029938,-53.476196,15.886376
1783977931.5556,14:25:31.555,23,false,0.380778,-0.556946,0.289551,0.678955,0.978531,0.020996,-0.218265,-28.113036,-53.407282,15.927707
1783977931.5869,14:25:31.586,24,false,0.380867,-0.556885,0.289551,0.678955,0.990249,0.045411,-0.208988,-28.038285,-53.420029,15.83032
1783977931.618,14:25:31.618,25,false,0.38054,-0.556885,0.289551,0.679138,0.975601,0.025879,-0.208988,-28.030825,-53.401594,15.787534
1783977931.6492,14:25:31.649,26,false,0.380306,-0.556641,0.289612,0.679443,0.997574,0.029786,-0.21387,-27.874573,-53.325187,15.584534
1783977931.6803,14:25:31.680,27,false,0.380134,-0.556396,0.289734,0.679688,0.988785,0.035645,-0.203128,-27.748899,-53.45082,15.551372
1783977931.7115,14:25:31.711,28,false,0.379978,-0.555908,0.290588,0.67981,0.973159,0.024414,-0.209964,-27.845147,-53.623706,15.581342
1783977931.7426,14:25:31.742,29,false,0.380089,-0.555481,0.29126,0.67981,0.991714,0.016114,-0.212406,-27.871954,-53.569949,15.623269
1783977931.7739,14:25:31.773,30,false,0.380194,-0.554993,0.291626,0.679993,0.996109,0.013672,-0.219242,-27.896081,-53.596337,15.690911
1783977931.8053,14:25:31.805,31,false,0.379965,-0.554443,0.292114,0.680359,0.980972,0.008789,-0.19971,-27.828072,-53.605132,15.736835
1783977931.8366,14:25:31.836,0,false,0.379656,-0.554077,0.292358,0.680725,0.980484,0.019532,-0.211917,-27.766864,-53.433602,15.882843
1783977931.868,14:25:31.868,1,false,0.379419,-0.553467,0.292542,0.681274,0.999527,0.014649,-0.218265,-27.816454,-53.309133,15.954435
1783977931.8991,14:25:31.899,2,false,0.379305,-0.553406,0.292664,0.681335,0.993179,0.009277,-0.208988,-27.9209,-53.406464,15.929145
1783977931.9302,14:25:31.930,3,false,0.378956,-0.553162,0.292725,0.681702,0.983902,0.008789,-0.221683,-27.760686,-53.494062,15.831615
1783977931.9614,14:25:31.961,4,false,0.378391,-0.552429,0.292847,0.682556,1.000992,0.024903,-0.221683,-27.736124,-53.468223,15.90833
1783977931.9925,14:25:31.992,5,false,0.378317,-0.551941,0.293152,0.682861,0.980484,0.008789,-0.223148,-27.699065,-53.504784,15.842788
1783977932.0237,14:25:32.023,6,false,0.378216,-0.551697,0.293457,0.682983,1.000504,0.013672,-0.224613,-27.650757,-53.477873,15.73894
1783977932.0548,14:25:32.054,7,false,0.378409,-0.551575,0.293579,0.682922,0.98439,0.013184,-0.224613,-27.607281,-53.453653,15.824922
1783977932.0859,14:25:32.085,8,false,0.378272,-0.551453,0.293701,0.683044,0.98439,0.011231,-0.223148,-27.568152,-53.37204,15.857445
1783977932.1171,14:25:32.117,9,false,0.378188,-0.551392,0.29364,0.683167,0.997574,0.011231,-0.218753,-27.458167,-53.507942,15.782038
1783977932.1484,14:25:32.148,10,false,0.377846,-0.55127,0.293457,0.683533,0.980484,0.010254,-0.224613,-27.463857,-53.630254,15.863711
1783977932.1798,14:25:32.179,11,false,0.378119,-0.551147,0.292908,0.683716,0.98732,0.003418,-0.226566,-27.513839,-53.710427,15.937216
1783977932.2111,14:25:32.211,12,false,0.378328,-0.551025,0.292297,0.68396,0.997086,0.013184,-0.235843,-27.499008,-53.872305,15.913648
1783977932.2424,14:25:32.242,13,false,0.377778,-0.551086,0.291321,0.684631,0.984878,0.010254,-0.227543,-27.470707,-53.778735,15.862529
1783977932.2738,14:25:32.273,14,false,0.377731,-0.551331,0.290344,0.684875,1.000504,0.010254,-0.220218,-27.460189,-53.679567,15.801568
1783977932.3049,14:25:32.304,15,false,0.377766,-0.551636,0.289429,0.684998,0.993668,0.019532,-0.234379,-27.375954,-53.665086,15.642026
1783977932.3361,14:25:32.336,16,false,0.377279,-0.552002,0.288208,0.685486,0.989761,0.007813,-0.21973,-27.345004,-53.607191,15.647977
1783977932.3672,14:25:32.367,17,false,0.376151,-0.552307,0.287354,0.686218,0.989761,0.02295,-0.228519,-27.287241,-53.614901,15.48884
1783977932.3983,14:25:32.398,18,false,0.373617,-0.55249,0.286804,0.687683,0.987808,0.026856,-0.229007,-27.384793,-53.576978,15.420386
1783977932.4295,14:25:32.429,19,false,0.372851,-0.552368,0.286865,0.688171,0.960464,0.042969,-0.229984,-27.367913,-53.51294,15.493363
1783977932.4606,14:25:32.460,20,false,0.370211,-0.552429,0.285767,0.690002,0.976577,0.013672,-0.216312,-27.367675,-53.619799,15.439411
1783977932.4918,14:25:32.491,21,false,0.369646,-0.553101,0.283569,0.690674,0.965347,0.025879,-0.218753,-27.457183,-53.701017,15.435715
1783977932.5231,14:25:32.523,22,false,0.368422,-0.554932,0.275513,0.693115,0.99855,0.03125,-0.207523,-27.388202,-53.594667,15.372574
1783977932.5544,14:25:32.554,23,false,0.365945,-0.556213,0.267334,0.696594,1.010269,0.114748,-0.213382,-27.356028,-53.439138,15.300793
1783977932.5858,14:25:32.585,24,false,0.360456,-0.557556,0.256775,0.702332,1.013687,0.119631,-0.228519,-27.252301,-53.329068,14.937113
1783977932.6171,14:25:32.617,25,false,0.344856,-0.55957,0.237183,0.715332,0.958999,0.122072,-0.271489,-27.24867,-53.185144,14.744386
1783977932.6485,14:25:32.648,26,false,0.329987,-0.560181,0.22229,0.726563,0.946792,0.113771,-0.291508,-27.200541,-53.085521,14.496163
1783977932.6798,14:25:32.679,27,false,0.302179,-0.561279,0.197021,0.744873,0.93019,0.145998,-0.3252,-26.932916,-52.816413,13.943777
1783977932.7111,14:25:32.711,28,false,0.280958,-0.561401,0.178833,0.757568,0.878431,0.059571,-0.359869,-26.871501,-52.619078,13.581214
1783977932.7423,14:25:32.742,29,false,0.25979,-0.560852,0.159668,0.769714,0.902846,0.009277,-0.3794,-26.562012,-52.247076,12.910969
1783977932.7734,14:25:32.773,30,false,0.23161,-0.559937,0.130493,0.784729,0.978531,-0.081544,-0.425788,-26.328333,-51.807598,12.307749
1783977932.8046,14:25:32.804,31,false,0.216514,-0.559448,0.113098,0.792053,1.000992,-0.075685,-0.438972,-25.998391,-51.262529,11.690082
1783977932.8357,14:25:32.835,0,false,0.203698,-0.559387,0.097534,0.797546,0.991714,-0.062989,-0.444831,-25.910797,-50.712152,11.119227
1783977932.8669,14:25:32.866,1,false,0.18874,-0.559143,0.079834,0.803345,0.98732,-0.032715,-0.414557,-25.383348,-50.037366,10.500781
1783977932.8982,14:25:32.898,2,false,0.181932,-0.559387,0.072021,0.805481,0.977066,0.002441,-0.405768,-25.01332,-49.459966,9.914272
1783977932.9295,14:25:32.929,3,false,0.173191,-0.559998,0.064514,0.807617,0.931167,0.041993,-0.384283,-24.710203,-48.895445,9.431276
1783977932.9609,14:25:32.960,4,false,0.17042,-0.560181,0.063416,0.808167,0.943862,0.066896,-0.384283,-24.437397,-48.118207,8.891902
1783977932.9922,14:25:32.992,5,false,0.16168,-0.560364,0.06366,0.809814,0.865736,0.090333,-0.336919,-24.087195,-47.628047,8.421419
1783977933.0236,14:25:33.023,6,false,0.15721,-0.559082,0.065125,0.811462,0.866712,0.089357,-0.35108,-23.891644,-47.112133,7.968077
1783977933.0547,14:25:33.054,7,false,0.155763,-0.557495,0.064697,0.812866,0.931655,0.053223,-0.374517,-23.521248,-46.617903,7.589977
1783977933.086,14:25:33.086,8,false,0.157335,-0.557434,0.062134,0.812805,0.938979,0.02002,-0.387213,-23.322477,-46.18805,7.234733
1783977933.1173,14:25:33.117,9,false,0.160992,-0.557739,0.057861,0.812195,0.987808,-0.025391,-0.412116,-23.263213,-45.726413,6.989783
1783977933.1484,14:25:33.148,10,false,0.168949,-0.559937,0.053101,0.809387,1.034195,0.020996,-0.41651,-23.165014,-45.23617,6.589881
1783977933.1796,14:25:33.179,11,false,0.173218,-0.561707,0.054993,0.807129,1.00441,0.008301,-0.43653,-23.046727,-44.82486,6.304739
1783977933.2107,14:25:33.210,12,false,0.178528,-0.563049,0.062256,0.804504,0.989273,0.023438,-0.415534,-22.940269,-44.45468,6.152788
1783977933.2418,14:25:33.241,13,false,0.188943,-0.566284,0.079224,0.79834,0.924819,0.067384,-0.381842,-22.814549,-44.181334,6.030986
1783977933.273,14:25:33.273,14,false,0.198968,-0.568665,0.091797,0.792847,0.928725,0.030274,-0.363775,-22.806078,-43.995138,5.90641
1783977933.3043,14:25:33.304,15,false,0.217037,-0.572815,0.112732,0.782349,0.948257,0.108888,-0.350591,-22.933039,-44.09673,5.988692
1783977933.3357,14:25:33.335,16,false,0.22283,-0.574097,0.118835,0.77887,0.902846,0.064454,-0.314458,-23.062257,-44.09844,5.973023
1783977933.367,14:25:33.367,17,false,0.240729,-0.575928,0.136902,0.769165,0.9673,0.086427,-0.29688,-23.268277,-44.309333,6.183228
1783977933.3983,14:25:33.398,18,false,0.251434,-0.576843,0.148804,0.762817,0.949233,0.093263,-0.296391,-23.51351,-44.543998,6.40232
1783977933.4297,14:25:33.429,19,false,0.265813,-0.577637,0.164124,0.75415,0.970718,0.105959,-0.283207,-23.749174,-44.785105,6.644365
1783977933.4608,14:25:33.460,20,false,0.277224,-0.577148,0.177673,0.747314,0.944839,0.099611,-0.26807,-24.03604,-45.106777,7.011743
1783977933.492,14:25:33.492,21,false,0.280436,-0.576904,0.181335,0.745422,0.982925,0.09424,-0.264652,-24.219451,-45.545821,7.297523
1783977933.5231,14:25:33.523,22,false,0.288696,-0.576172,0.190002,0.740662,0.986831,0.07422,-0.263676,-24.38452,-45.866191,7.554724
1783977933.5542,14:25:33.554,23,false,0.29249,-0.575256,0.195679,0.738403,0.981949,0.075685,-0.260258,-24.548037,-46.348925,7.771251
1783977933.5854,14:25:33.585,24,false,0.295651,-0.574036,0.203552,0.735962,0.958511,0.066407,-0.26807,-24.755017,-46.738523,8.10071
1783977933.6167,14:25:33.616,25,false,0.298105,-0.573547,0.20813,0.73407,0.97023,0.047364,-0.251469,-24.911391,-47.119069,8.352362
1783977933.6479,14:25:33.647,26,false,0.300475,-0.57312,0.212097,0.7323,0.966812,0.035645,-0.258793,-25.02222,-47.401745,8.848018
1783977933.6792,14:25:33.679,27,false,0.303684,-0.572205,0.218933,0.729675,0.98146,0.029297,-0.251469,-25.121967,-47.775784,9.189431
1783977933.7105,14:25:33.710,28,false,0.306175,-0.571594,0.223511,0.727722,0.982925,0.037598,-0.252445,-25.136969,-48.067558,9.496703
1783977933.7419,14:25:33.741,29,false,0.308981,-0.570923,0.228455,0.725525,0.984878,0.024414,-0.245609,-25.150472,-48.449785,9.698478
1783977933.7732,14:25:33.773,30,false,0.312711,-0.569702,0.235413,0.722656,0.985855,0.007324,-0.241703,-25.207485,-48.644251,9.880076
1783977933.8044,14:25:33.804,31,false,0.314994,-0.569214,0.239319,0.720764,0.986831,0.007324,-0.234379,-25.288705,-48.819271,10.148191
1783977933.8355,14:25:33.835,0,false,0.319168,-0.568481,0.245178,0.717529,0.999527,0.016114,-0.228031,-25.436572,-49.126327,10.509126
1783977933.8666,14:25:33.866,1,false,0.320472,-0.568237,0.24707,0.716492,0.977066,0.037598,-0.23682,-25.539745,-49.432585,10.833967
1783977933.8978,14:25:33.897,2,false,0.323621,-0.567688,0.251953,0.713806,1.003433,0.029786,-0.218753,-25.617646,-49.693263,11.0366
1783977933.9289,14:25:33.928,3,false,0.325044,-0.567566,0.2547,0.71228,0.986831,0.018067,-0.220706,-25.762527,-50.002643,11.428324
1783977933.9601,14:25:33.960,4,false,0.327034,-0.566589,0.258728,0.710693,0.958999,-0.02002,-0.217288,-25.907874,-50.370808,11.511707
1783977933.9912,14:25:33.991,5,false,0.329575,-0.565796,0.261414,0.709167,0.984878,-0.018555,-0.225589,-25.948962,-50.492802,11.781151
1783977934.0223,14:25:34.022,6,false,0.332277,-0.565308,0.26416,0.707275,0.996109,-0.006348,-0.228519,-25.956034,-50.737182,12.113374
1783977934.0537,14:25:34.053,7,false,0.335483,-0.564697,0.268555,0.70459,0.988296,0.000977,-0.223148,-26.037169,-51.031893,12.27779
1783977934.085,14:25:34.085,8,false,0.337442,-0.564148,0.27124,0.703064,0.991226,0.000977,-0.20264,-26.080282,-51.371902,12.48558
1783977934.1164,14:25:34.116,9,false,0.339374,-0.563904,0.273438,0.701477,0.991714,0.000488,-0.204105,-26.059268,-51.618094,12.702498
1783977934.1477,14:25:34.147,10,false,0.34133,-0.563538,0.276123,0.699768,0.987808,0.013184,-0.203616,-26.17494,-51.824714,12.808002
1783977934.1791,14:25:34.179,11,false,0.342071,-0.563171,0.277649,0.699097,0.981949,-0.007324,-0.207523,-26.383722,-52.085441,13.03754
1783977934.2102,14:25:34.210,12,false,0.344464,-0.562805,0.279114,0.697632,1.002457,-0.021973,-0.209476,-26.332365,-52.185511,13.303939
1783977934.2413,14:25:34.241,13,false,0.346828,-0.562683,0.279785,0.696289,0.995621,-0.028321,-0.222171,-26.420727,-52.290527,13.453975
1783977934.2725,14:25:34.272,14,false,0.349527,-0.562805,0.280579,0.694519,0.996597,-0.012207,-0.210941,-26.560069,-52.489719,13.499285
1783977934.3036,14:25:34.303,15,false,0.354814,-0.562683,0.282471,0.691162,1.003433,-0.009766,-0.219242,-26.5808,-52.683945,13.734464
1783977934.3348,14:25:34.334,16,false,0.35861,-0.562317,0.284363,0.688721,0.997574,0.016114,-0.203616,-26.659273,-52.769026,13.961079
1783977934.3659,14:25:34.365,17,false,0.363167,-0.561401,0.287598,0.68573,0.996597,0.030762,-0.20557,-26.789714,-52.935322,14.179986
1783977934.3972,14:25:34.397,18,false,0.364311,-0.561096,0.288635,0.684937,0.975601,0.031739,-0.198734,-26.832342,-52.965357,14.421863
1783977934.4286,14:25:34.428,19,false,0.366533,-0.560364,0.29071,0.683472,0.989761,0.024903,-0.202152,-26.795937,-53.261558,14.594692
1783977934.4599,14:25:34.459,20,false,0.367148,-0.559814,0.291565,0.683228,0.974624,0.023926,-0.195804,-26.837943,-53.378601,14.675468
1783977934.4913,14:25:34.491,21,false,0.367539,-0.558899,0.292542,0.68335,0.988296,0.017578,-0.208988,-27.010332,-53.468985,14.703306
1783977934.5226,14:25:34.522,22,false,0.367665,-0.558411,0.292603,0.683655,0.986343,-0.001465,-0.19678,-27.090714,-53.475562,14.833036
1783977934.5539,14:25:34.553,23,false,0.367917,-0.558105,0.292725,0.683716,1.00441,0.001953,-0.203128,-27.282687,-53.496435,14.93484
1783977934.5851,14:25:34.585,24,false,0.367674,-0.557678,0.293701,0.683777,0.992203,-0.000488,-0.203128,-27.290972,-53.530174,15.041417
1783977934.6164,14:25:34.616,25,false,0.367914,-0.557251,0.294495,0.683655,0.979995,0.004883,-0.202152,-27.283474,-53.620355,15.15229
1783977934.6476,14:25:34.647,26,false,0.368028,-0.556885,0.295044,0.683655,0.993179,-0.005859,-0.199222,-27.381402,-53.626749,15.222168
1783977934.6787,14:25:34.678,27,false,0.368545,-0.556519,0.295654,0.683411,0.998062,0.00293,-0.206546,-27.589169,-53.632503,15.314966
1783977934.7098,14:25:34.709,28,false,0.368911,-0.556091,0.296143,0.68335,1.008316,-0.002441,-0.212406,-27.536897,-53.622728,15.4583
1783977934.741,14:25:34.741,29,false,0.369369,-0.555481,0.296997,0.683228,0.993668,0.003418,-0.206546,-27.684252,-53.733561,15.572346
1783977934.7721,14:25:34.772,30,false,0.369391,-0.555359,0.297058,0.683289,0.985367,-0.00293,-0.203128,-27.772011,-53.668819,15.540403
1783977934.8035,14:25:34.803,31,false,0.370409,-0.554749,0.297913,0.682861,0.992203,-0.007813,-0.216312,-27.716409,-53.745135,15.601378
1783977934.8348,14:25:34.834,0,false,0.371006,-0.554504,0.298462,0.682495,0.997574,-0.009766,-0.212894,-27.741137,-53.843727,15.835701
1783977934.8661,14:25:34.866,1,false,0.371566,-0.554138,0.299561,0.682007,1.004898,0.006836,-0.210452,-27.703576,-53.81283,15.822284
1783977934.8975,14:25:34.897,2,false,0.372208,-0.553772,0.300964,0.681335,0.997086,-0.004883,-0.198245,-27.729587,-54.024284,15.899932
1783977934.9288,14:25:34.928,3,false,0.3724,-0.553711,0.301392,0.681091,0.979019,-0.011231,-0.204105,-27.633366,-53.990284,15.850185
1783977934.96,14:25:34.960,4,false,0.37258,-0.55365,0.302246,0.680664,0.996597,0.003906,-0.201175,-27.606582,-53.974639,16.044673
1783977934.9913,14:25:34.991,5,false,0.37239,-0.553894,0.302307,0.680542,0.996109,-0.026368,-0.212406,-27.702108,-54.005419,16.189806
1783977935.0224,14:25:35.022,6,false,0.371526,-0.554199,0.302673,0.680603,1.016129,-0.021973,-0.198245,-27.608634,-54.122845,16.260609
1783977935.0536,14:25:35.053,7,false,0.370264,-0.554443,0.303223,0.680847,1.016617,-0.066407,-0.201175,-27.659093,-54.19862,16.414055
1783977935.0847,14:25:35.084,8,false,0.368855,-0.554749,0.303833,0.681091,1.0215,-0.079591,-0.19971,-27.854045,-54.132234,16.477388
1783977935.1159,14:25:35.115,9,false,0.366867,-0.555176,0.303406,0.682007,0.977066,-0.067384,-0.186526,-27.850055,-54.281839,16.42971
1783977935.1472,14:25:35.147,10,false,0.365985,-0.554932,0.302307,0.683167,0.987808,-0.064454,-0.190921,-27.876371,-54.311807,16.461569
1783977935.1785,14:25:35.178,11,false,0.36606,-0.554749,0.300476,0.684082,1.019059,-0.020508,-0.186038,-27.795379,-54.488317,16.310796
1783977935.2099,14:25:35.209,12,false,0.366764,-0.55426,0.297302,0.685486,0.94435,-0.02002,-0.191409,-27.752395,-54.527545,16.309686
1783977935.2412,14:25:35.241,13,false,0.368562,-0.553833,0.294312,0.686157,0.941421,0.000488,-0.185061,-27.803431,-54.44322,16.368501
1783977935.2726,14:25:35.272,14,false,0.373067,-0.553955,0.288635,0.686035,0.966812,0.019532,-0.212894,-27.610103,-54.486958,16.301804
1783977935.3039,14:25:35.303,15,false,0.374541,-0.554321,0.286743,0.68573,1.010269,0.041505,-0.233402,-27.52583,-54.48146,16.181962
1783977935.3352,14:25:35.335,16,false,0.37777,-0.555237,0.282898,0.684814,0.988785,0.046876,-0.234379,-27.494846,-54.401743,16.044196
1783977935.3666,14:25:35.366,17,false,0.379297,-0.555542,0.281433,0.684326,0.994644,0.042969,-0.23389,-27.496868,-54.150552,15.950114
1783977935.3977,14:25:35.397,18,false,0.382158,-0.555908,0.280396,0.682861,1.010758,0.070314,-0.231937,-27.693088,-54.103926,15.94021
1783977935.4289,14:25:35.428,19,false,0.384354,-0.556274,0.279785,0.68158,0.957534,0.063478,-0.23975,-27.720148,-54.061962,15.931296
1783977935.46,14:25:35.460,20,false,0.387538,-0.556335,0.278687,0.680176,0.948745,0.072267,-0.221683,-27.804317,-53.96438,15.863459
1783977935.4911,14:25:35.491,21,false,0.392951,-0.556763,0.274536,0.678406,0.974624,0.073243,-0.241215,-27.969792,-53.786832,15.817358
1783977935.5223,14:25:35.522,22,false,0.397711,-0.556885,0.27179,0.676636,0.976089,0.086915,-0.244633,-27.834596,-53.686855,15.805776
1783977935.5536,14:25:35.553,23,false,0.405309,-0.556824,0.26886,0.67334,0.985855,0.117189,-0.265141,-27.90732,-53.477245,15.795352
1783977935.585,14:25:35.585,24,false,0.409583,-0.556702,0.268127,0.671143,1.00734,0.141115,-0.279789,-27.898003,-53.408227,15.815877
1783977935.6163,14:25:35.616,25,false,0.411947,-0.556824,0.268677,0.669373,0.987808,0.134768,-0.264164,-27.919525,-53.271341,15.729674
1783977935.6477,14:25:35.647,26,false,0.413085,-0.556885,0.270142,0.66803,0.989273,0.128908,-0.228519,-27.953848,-53.05842,15.771721
1783977935.679,14:25:35.679,27,false,0.41299,-0.557434,0.270813,0.667358,0.994644,0.125978,-0.231449,-28.029601,-52.866792,15.67498
1783977935.7103,14:25:35.710,28,false,0.412706,-0.55835,0.271912,0.666321,0.967788,0.086427,-0.217777,-27.978148,-52.574696,15.647727
1783977935.7417,14:25:35.741,29,false,0.413012,-0.559814,0.273804,0.664124,0.939467,0.082033,-0.205081,-27.961748,-52.446394,15.578339
1783977935.7728,14:25:35.772,30,false,0.41422,-0.560486,0.274597,0.662476,0.955093,0.078126,-0.200687,-27.976895,-52.405691,15.620566
1783977935.804,14:25:35.804,31,false,0.41734,-0.561218,0.275574,0.659485,0.980484,0.090333,-0.210941,-27.96062,-52.324198,15.65857
1783977935.8351,14:25:35.835,0,false,0.418537,-0.561157,0.275635,0.658752,0.985855,0.083986,-0.22266,-28.110465,-52.131222,15.67782
1783977935.8662,14:25:35.866,1,false,0.422013,-0.560486,0.275635,0.657104,1.029313,0.093751,-0.228519,-28.245325,-52.032314,15.650284
1783977935.8974,14:25:35.897,2,false,0.42353,-0.560486,0.275635,0.656128,1.061051,0.087892,-0.231937,-28.202207,-51.988158,15.789994
1783977935.9287,14:25:35.928,3,false,0.424462,-0.561523,0.277161,0.653992,1.046891,0.039551,-0.255375,-28.268078,-51.84374,15.885824
1783977935.9601,14:25:35.960,4,false,0.424683,-0.562073,0.279297,0.652466,1.062028,0.006348,-0.245609,-28.402131,-51.609088,15.927211
1783977935.9914,14:25:35.991,5,false,0.424725,-0.5625,0.281921,0.65094,1.051286,0.006348,-0.243656,-28.507824,-51.592301,16.054181
1783977936.0227,14:25:36.022,6,false,0.426839,-0.561768,0.28717,0.647888,0.955581,0.05127,-0.221683,-28.632856,-51.427654,16.138547
1783977936.0541,14:25:36.054,7,false,0.42933,-0.562378,0.289124,0.644836,0.921889,0.089357,-0.190921,-28.595847,-51.324333,16.064938
1783977936.0852,14:25:36.085,8,false,0.432806,-0.56488,0.288696,0.640503,0.891615,0.245121,-0.128908,-28.667215,-51.246298,16.133275
1783977936.1164,14:25:36.116,9,false,0.438943,-0.570984,0.282715,0.633545,0.942885,0.206546,-0.149416,-28.7464,-51.116251,16.314408
1783977936.1477,14:25:36.147,10,false,0.441661,-0.574036,0.278687,0.630676,0.938979,0.197757,-0.160647,-28.877482,-50.909486,16.357798
1783977936.1788,14:25:36.178,11,false,0.44514,-0.577087,0.273132,0.627869,0.982925,0.25684,-0.172366,-28.965549,-50.708444,16.621156
1783977936.21,14:25:36.210,12,false,0.446096,-0.578064,0.271606,0.626953,0.999039,0.224125,-0.190433,-29.074716,-50.691998,16.663778
1783977936.2411,14:25:36.241,13,false,0.447487,-0.581116,0.268127,0.624634,0.971206,0.218753,-0.180179,-29.06829,-50.542612,16.791861
1783977936.2723,14:25:36.272,14,false,0.447775,-0.583435,0.266724,0.622864,0.951675,0.244633,-0.158206,-29.226998,-50.378257,17.011813
1783977936.3036,14:25:36.303,15,false,0.446828,-0.587158,0.264832,0.62085,0.948745,0.23975,-0.151858,-29.280113,-50.050891,17.030323
1783977936.3349,14:25:36.334,16,false,0.44569,-0.589417,0.263733,0.619995,0.962905,0.226566,-0.145998,-29.327916,-49.756262,17.091844
1783977936.3663,14:25:36.366,17,false,0.445353,-0.590027,0.263367,0.619812,0.966812,0.246098,-0.138674,-29.475616,-49.535957,17.162167
1783977936.3976,14:25:36.397,18,false,0.445283,-0.591553,0.26178,0.61908,0.982925,0.255375,-0.130373,-29.593592,-49.322729,17.285273
1783977936.4288,14:25:36.428,19,false,0.445081,-0.592773,0.260803,0.618469,0.978042,0.242679,-0.134768,-29.744631,-49.085963,17.411022
1783977936.4599,14:25:36.459,20,false,0.443767,-0.593323,0.260925,0.618835,0.974624,0.208011,-0.137209,-29.925429,-48.97755,17.628873
1783977936.491,14:25:36.491,21,false,0.44275,-0.59314,0.261475,0.619507,0.980972,0.196292,-0.134768,-29.968516,-48.730439,17.675401
1783977936.5222,14:25:36.522,22,false,0.441549,-0.592285,0.263123,0.620483,0.989273,0.178225,-0.147951,-29.827848,-48.582809,17.762137
1783977936.5533,14:25:36.553,23,false,0.439351,-0.59021,0.266541,0.622559,0.972183,0.137697,-0.182132,-29.925554,-48.524711,17.795338
1783977936.5845,14:25:36.584,24,false,0.437756,-0.588684,0.268677,0.624207,0.993668,0.151858,-0.177249,-29.938721,-48.65187,17.825219
1783977936.6156,14:25:36.615,25,false,0.435826,-0.587524,0.270935,0.625671,1.041032,0.151369,-0.193362,-29.90571,-48.616773,17.971743
1783977936.6467,14:25:36.646,26,false,0.431187,-0.586548,0.274658,0.628174,1.001968,0.126955,-0.187503,-29.861045,-48.67491,17.939122
1783977936.6781,14:25:36.678,27,false,0.428357,-0.586243,0.276794,0.629456,0.980484,0.112306,-0.175296,-30.030201,-48.607602,18.029393
1783977936.7094,14:25:36.709,28,false,0.424815,-0.585693,0.279236,0.631287,0.990249,0.096193,-0.165042,-30.13758,-48.80124,18.035869
1783977936.7408,14:25:36.740,29,false,0.42398,-0.585327,0.280029,0.631836,0.995132,0.06836,-0.16553,-30.204314,-48.975515,18.011789
1783977936.7721,14:25:36.772,30,false,0.422844,-0.584045,0.281799,0.632996,1.019547,0.076661,-0.174807,-30.159697,-49.042638,17.975164
1783977936.8034,14:25:36.803,31,false,0.423287,-0.583252,0.282776,0.632996,1.01564,0.099123,-0.169924,-30.089634,-49.132958,17.837524
1783977936.8348,14:25:36.834,0,false,0.424011,-0.582886,0.283264,0.632629,1.000992,0.126955,-0.175784,-30.146208,-49.214245,17.848232
1783977936.8661,14:25:36.866,1,false,0.424062,-0.582886,0.283325,0.632568,0.995132,0.104494,-0.165042,-30.152263,-49.257496,17.753193
1783977936.8973,14:25:36.897,2,false,0.424677,-0.582458,0.283691,0.632385,0.98146,0.122072,-0.153323,-30.097897,-49.236606,17.83215
1783977936.9284,14:25:36.928,3,false,0.425874,-0.582031,0.283997,0.631836,0.977554,0.133303,-0.154788,-29.884476,-49.277621,17.843396
1783977936.9596,14:25:36.959,4,false,0.426702,-0.581726,0.284058,0.631531,0.985367,0.111818,-0.166018,-29.856889,-49.434165,17.943241
1783977936.9907,14:25:36.990,5,false,0.42747,-0.581421,0.283936,0.631348,0.993179,0.132815,-0.166995,-29.757292,-49.44047,17.928424
1783977937.0218,14:25:37.021,6,false,0.42813,-0.581177,0.284119,0.631042,0.974624,0.122072,-0.151858,-29.817192,-49.371375,18.094534
1783977937.053,14:25:37.053,7,false,0.428499,-0.580872,0.284729,0.630798,0.986343,0.125002,-0.154299,-29.871103,-49.383959,18.064588
1783977937.0843,14:25:37.084,8,false,0.428982,-0.580322,0.284851,0.63092,1.01564,0.151369,-0.1626,-29.964484,-49.574731,18.007729
1783977937.1157,14:25:37.115,9,false,0.42955,-0.579407,0.284912,0.631348,1.017594,0.126955,-0.181155,-30.033573,-49.581933,18.001417
1783977937.147,14:25:37.147,10,false,0.430276,-0.578491,0.284729,0.631775,0.951186,0.127443,-0.16846,-30.00603,-49.588415,18.070505
1783977937.1783,14:25:37.178,11,false,0.433159,-0.577332,0.283386,0.63147,0.990738,0.140139,-0.186526,-30.011149,-49.609203,18.07287
1783977937.2097,14:25:37.209,12,false,0.434453,-0.577393,0.282776,0.630798,1.033707,0.141115,-0.189944,-29.985849,-49.612958,17.955367
1783977937.241,14:25:37.241,13,false,0.434845,-0.579285,0.282654,0.628845,1.000504,0.153323,-0.176272,-30.157478,-49.541568,18.103829
1783977937.2722,14:25:37.272,14,false,0.434803,-0.579895,0.282959,0.628174,0.98732,0.137697,-0.156252,-30.17736,-49.462364,18.072954
1783977937.3033,14:25:37.303,15,false,0.434312,-0.581726,0.283203,0.626709,0.977066,0.12842,-0.160647,-30.255069,-49.435941,18.104981
1783977937.3344,14:25:37.334,16,false,0.434591,-0.582581,0.283447,0.62561,0.98732,0.155276,-0.143069,-30.235285,-49.442069,18.178667
1783977937.3656,14:25:37.365,17,false,0.435637,-0.583435,0.284119,0.623779,0.980484,0.152346,-0.157717,-30.322155,-49.447583,18.215076
1783977937.3967,14:25:37.396,18,false,0.436135,-0.583862,0.284485,0.622864,0.988785,0.152346,-0.150393,-30.325569,-49.407685,18.352522
1783977937.4279,14:25:37.427,19,false,0.436391,-0.584167,0.284668,0.622314,1.000015,0.167483,-0.153811,-30.268827,-49.38673,18.311731
1783977937.4592,14:25:37.459,20,false,0.436558,-0.58429,0.285095,0.621887,0.977066,0.157229,-0.153323,-30.277574,-49.427687,18.439511
1783977937.4905,14:25:37.490,21,false,0.436681,-0.584167,0.285156,0.621887,0.989273,0.161624,-0.147951,-30.270493,-49.225286,18.390021
1783977937.5219,14:25:37.521,22,false,0.436545,-0.584229,0.284973,0.622009,0.999039,0.153811,-0.163088,-30.428612,-49.252479,18.480064
1783977937.5532,14:25:37.553,23,false,0.436319,-0.583923,0.285278,0.622314,0.979507,0.141604,-0.166018,-30.600826,-49.321814,18.426519
1783977937.5846,14:25:37.584,24,false,0.436352,-0.583923,0.285095,0.622375,0.988296,0.157717,-0.158694,-30.770773,-49.264585,18.572728
1783977937.6159,14:25:37.615,25,false,0.436349,-0.584229,0.284607,0.622314,1.002945,0.166018,-0.160647,-30.848957,-49.287848,18.704316
1783977937.6472,14:25:37.647,26,false,0.436147,-0.584534,0.284424,0.622253,0.987808,0.159182,-0.150881,-30.739875,-49.1742,18.673207
1783977937.6784,14:25:37.678,27,false,0.43586,-0.585876,0.282898,0.621887,0.988785,0.14844,-0.153323,-30.955733,-49.176594,18.600347
1783977937.7095,14:25:37.709,28,false,0.436615,-0.587341,0.281372,0.620667,0.988785,0.147463,-0.152346,-30.940651,-49.313333,18.669358
1783977937.7407,14:25:37.740,29,false,0.437996,-0.590149,0.278442,0.618347,0.990738,0.154299,-0.149905,-30.942031,-49.271906,18.671652
1783977937.7718,14:25:37.771,30,false,0.439006,-0.591858,0.277283,0.616516,0.988785,0.167971,-0.138186,-30.928319,-49.219667,18.733533
1783977937.8029,14:25:37.802,31,false,0.439746,-0.593323,0.276367,0.61499,0.985855,0.183108,-0.139651,-30.856163,-49.112838,18.878948
1783977937.8343,14:25:37.834,0,false,0.441536,-0.59436,0.275757,0.612976,0.993179,0.180667,-0.147463,-30.806177,-49.106414,18.920099
1783977937.8656,14:25:37.865,1,false,0.442685,-0.594421,0.275818,0.612061,0.986343,0.191897,-0.141115,-30.68642,-48.951094,19.061811
1783977937.897,14:25:37.897,2,false,0.443654,-0.594543,0.275757,0.611267,0.977066,0.201663,-0.141604,-30.773038,-48.781399,19.039814
1783977937.9283,14:25:37.928,3,false,0.444005,-0.594604,0.27533,0.611145,0.985367,0.204593,-0.132815,-30.701457,-48.65858,19.020017
1783977937.9596,14:25:37.959,4,false,0.444064,-0.594604,0.274963,0.611267,0.977554,0.195804,-0.145022,-30.666941,-48.443367,19.076968
1783977937.991,14:25:37.991,5,false,0.444086,-0.594543,0.274109,0.611694,0.997086,0.190433,-0.145998,-30.815323,-48.339398,19.038502
1783977938.0221,14:25:38.022,6,false,0.444037,-0.594482,0.274048,0.611816,0.991714,0.186526,-0.140627,-30.874097,-48.470134,19.078651
1783977938.0533,14:25:38.053,7,false,0.443923,-0.594238,0.274353,0.612,0.979507,0.180179,-0.154788,-30.882133,-48.408349,19.040016
1783977938.0844,14:25:38.084,8,false,0.444177,-0.593994,0.273926,0.612244,0.995132,0.189944,-0.14844,-30.889364,-48.277975,19.109921
1783977938.1155,14:25:38.115,9,false,0.444368,-0.594055,0.273621,0.612183,1.008316,0.195804,-0.155276,-30.955689,-48.25036,19.157883
1783977938.1467,14:25:38.146,10,false,0.444564,-0.593872,0.274109,0.612,0.987808,0.176761,-0.138674,-30.925657,-48.285323,19.320678
1783977938.1778,14:25:38.177,11,false,0.444473,-0.593933,0.273987,0.612061,0.979507,0.176761,-0.150881,-30.793952,-48.286881,19.242887
1783977938.2092,14:25:38.209,12,false,0.445123,-0.593811,0.273743,0.611816,0.993668,0.192874,-0.14844,-30.869817,-48.258376,19.352321
1783977938.2405,14:25:38.240,13,false,0.445359,-0.593872,0.273499,0.611694,0.98146,0.197757,-0.147463,-30.893235,-48.307491,19.405949
1783977938.2718,14:25:38.271,14,false,0.445817,-0.593689,0.27356,0.611511,0.974624,0.194339,-0.144533,-31.018987,-48.261971,19.439262
1783977938.3032,14:25:38.303,15,false,0.445735,-0.59375,0.27356,0.611511,0.991226,0.201175,-0.137697,-30.952718,-48.056511,19.529058
1783977938.3345,14:25:38.334,16,false,0.445597,-0.59375,0.273376,0.611694,0.976089,0.183597,-0.144533,-30.893076,-47.946366,19.505198
1783977938.3659,14:25:38.365,17,false,0.445906,-0.593567,0.273132,0.611755,0.98439,0.194339,-0.144045,-30.88426,-47.907051,19.543539
1783977938.397,14:25:38.397,18,false,0.445639,-0.593628,0.272888,0.612,0.989761,0.195315,-0.155276,-30.861371,-47.781944,19.563092
1783977938.4282,14:25:38.428,19,false,0.445469,-0.593567,0.272888,0.612183,0.979507,0.191409,-0.144045,-30.915541,-47.818887,19.550782
1783977938.4593,14:25:38.459,20,false,0.444944,-0.593506,0.272644,0.612732,0.996109,0.195804,-0.151369,-30.934386,-47.79232,19.479888
1783977938.4904,14:25:38.490,21,false,0.444718,-0.593445,0.272461,0.613037,0.985855,0.193851,-0.14258,-31.011162,-47.753456,19.475899
1783977938.5216,14:25:38.521,22,false,0.444072,-0.593445,0.272278,0.613586,0.990738,0.186038,-0.146975,-31.005491,-47.718478,19.32277
1783977938.5527,14:25:38.552,23,false,0.443607,-0.593323,0.272339,0.614014,0.974136,0.188968,-0.158694,-30.985433,-47.746813,19.244769
1783977938.5841,14:25:38.584,24,false,0.443357,-0.593201,0.272461,0.614258,0.979995,0.189456,-0.149905,-30.92252,-47.697546,19.279245
1783977938.6154,14:25:38.615,25,false,0.442551,-0.593079,0.272522,0.614929,0.98439,0.181643,-0.160159,-31.015436,-47.623297,19.235505
1783977938.6467,14:25:38.646,26,false,0.442385,-0.592957,0.272644,0.615112,0.974624,0.18555,-0.146975,-31.024291,-47.661151,19.196138
1783977938.6781,14:25:38.678,27,false,0.441957,-0.593079,0.272522,0.615356,0.98439,0.188479,-0.147463,-31.062169,-47.605496,18.936401
1783977938.7094,14:25:38.709,28,false,0.44174,-0.593079,0.272461,0.61554,0.977066,0.177249,-0.141115,-30.961674,-47.749806,18.852176
1783977938.7406,14:25:38.740,29,false,0.44163,-0.592957,0.272766,0.615601,0.997086,0.192874,-0.143069,-30.901136,-47.730147,18.955819
1783977938.7719,14:25:38.771,30,false,0.441469,-0.59314,0.272766,0.61554,1.002457,0.206546,-0.136233,-30.906468,-47.667592,19.079006
1783977938.803,14:25:38.803,31,false,0.440495,-0.592957,0.273499,0.616089,0.985367,0.168948,-0.14551,-30.971082,-47.52157,19.130058
1783977938.8342,14:25:38.834,0,false,0.439944,-0.592773,0.273682,0.616577,0.994156,0.183108,-0.14258,-30.954465,-47.599504,19.205913
1783977938.8653,14:25:38.865,1,false,0.439274,-0.592712,0.273376,0.617249,1.006363,0.172366,-0.14551,-30.954464,-47.550014,19.154552
1783977938.8965,14:25:38.896,2,false,0.43921,-0.592468,0.272766,0.617798,0.989273,0.169924,-0.14551,-30.760063,-47.684918,19.287773
1783977938.9276,14:25:38.927,3,false,0.439548,-0.592407,0.272217,0.617859,0.993668,0.180667,-0.150881,-30.749594,-47.656794,19.258134
1783977938.9589,14:25:38.958,4,false,0.439832,-0.592468,0.271484,0.61792,0.989273,0.168948,-0.14844,-30.755126,-47.586621,19.291274
1783977938.9903,14:25:38.990,5,false,0.440102,-0.592468,0.27063,0.618103,0.977066,0.191897,-0.144045,-30.745151,-47.717865,19.1267
1783977939.0216,14:25:39.021,6,false,0.440216,-0.59259,0.269897,0.618225,0.990249,0.174319,-0.154788,-30.64645,-47.656539,18.978583
1783977939.053,14:25:39.053,7,false,0.44028,-0.592651,0.268677,0.618652,0.977554,0.191409,-0.154788,-30.587527,-47.616299,18.890139
1783977939.0843,14:25:39.084,8,false,0.440172,-0.592651,0.268433,0.618835,0.986831,0.175296,-0.149416,-30.698989,-47.595037,18.870356
1783977939.1156,14:25:39.115,9,false,0.440391,-0.592407,0.268188,0.619019,0.993179,0.18555,-0.155764,-30.709581,-47.560947,18.912366
1783977939.1468,14:25:39.146,10,false,0.44008,-0.592468,0.267578,0.619446,0.978531,0.192874,-0.153323,-30.749022,-47.560174,18.950175
1783977939.1779,14:25:39.177,11,false,0.440519,-0.592224,0.267395,0.619446,0.984878,0.191897,-0.164065,-30.634981,-47.52957,18.984203
1783977939.2091,14:25:39.209,12,false,0.440617,-0.592224,0.267517,0.619324,0.983413,0.190433,-0.159182,-30.63702,-47.59175,18.955013
1783977939.2402,14:25:39.240,13,false,0.440306,-0.592346,0.267334,0.619507,0.993668,0.185061,-0.14551,-30.728579,-47.587897,18.868926
1783977939.2713,14:25:39.271,14,false,0.44003,-0.592407,0.266663,0.619934,0.991226,0.186038,-0.150393,-30.586674,-47.449844,18.791448
1783977939.3025,14:25:39.302,15,false,0.440256,-0.592285,0.266418,0.619995,0.986343,0.186038,-0.156741,-30.473913,-47.445227,18.811441
1783977939.3338,14:25:39.333,16,false,0.440138,-0.592163,0.266174,0.6203,0.978042,0.186526,-0.160647,-30.507013,-47.351349,18.784574
1783977939.3652,14:25:39.365,17,false,0.439925,-0.592102,0.265808,0.620667,0.980972,0.180667,-0.157717,-30.611572,-47.311721,18.7903
1783977939.3965,14:25:39.396,18,false,0.440082,-0.591858,0.265808,0.620789,0.984878,0.173831,-0.155276,-30.52623,-47.216239,18.7805
1783977939.4278,14:25:39.427,19,false,0.439954,-0.591797,0.265442,0.621094,1.00148,0.193851,-0.157717,-30.509236,-47.249937,18.65205
1783977939.4592,14:25:39.459,20,false,0.440192,-0.591675,0.265747,0.620911,0.988296,0.167971,-0.151858,-30.538804,-47.355034,18.775706
1783977939.4905,14:25:39.490,21,false,0.440143,-0.591492,0.265808,0.621094,0.9673,0.187503,-0.161624,-30.415877,-47.419714,18.70755
1783977939.5217,14:25:39.521,22,false,0.440278,-0.591309,0.265564,0.621277,1.000504,0.200687,-0.161135,-30.380011,-47.403156,18.691071
1783977939.5528,14:25:39.552,23,false,0.440114,-0.591431,0.265564,0.621277,0.985367,0.189944,-0.166506,-30.437455,-47.522839,18.661287
1783977939.5839,14:25:39.583,24,false,0.439527,-0.591492,0.265686,0.621582,0.994644,0.176272,-0.167971,-30.474201,-47.391292,18.604573
1783977939.6151,14:25:39.615,25,false,0.439309,-0.591553,0.265625,0.621704,0.98146,0.187015,-0.164553,-30.447457,-47.392531,18.583438
1783977939.6462,14:25:39.646,26,false,0.438551,-0.591675,0.26532,0.622253,0.983413,0.171878,-0.16553,-30.483203,-47.348784,18.579371
1783977939.6774,14:25:39.677,27,false,0.438469,-0.591553,0.265442,0.622375,0.980484,0.175784,-0.16553,-30.545281,-47.339319,18.530848
1783977939.7087,14:25:39.708,28,false,0.438477,-0.591492,0.265564,0.622375,0.988296,0.185061,-0.16553,-30.675921,-47.435478,18.561948
1783977939.7401,14:25:39.740,29,false,0.438312,-0.591431,0.265686,0.622498,0.979507,0.181155,-0.159182,-30.718728,-47.387437,18.589937
1783977939.7714,14:25:39.771,30,false,0.438176,-0.591431,0.265625,0.62262,0.986831,0.190433,-0.162112,-30.607716,-47.478784,18.615127
1783977939.8027,14:25:39.802,31,false,0.438283,-0.59137,0.265869,0.622498,0.991714,0.197757,-0.166995,-30.552667,-47.426412,18.458352
1783977939.8341,14:25:39.834,0,false,0.43778,-0.591431,0.265991,0.622742,0.983413,0.188479,-0.163088,-30.428353,-47.513861,18.317255
1783977939.8654,14:25:39.865,1,false,0.437507,-0.591248,0.266418,0.622925,0.982925,0.175784,-0.162112,-30.39124,-47.592566,18.444483
1783977939.8966,14:25:39.896,2,false,0.437076,-0.591125,0.266968,0.623108,0.996109,0.176761,-0.161624,-30.372792,-47.618539,18.469265
1783977939.9277,14:25:39.927,3,false,0.437171,-0.591064,0.267517,0.622864,0.991714,0.173831,-0.158694,-30.236558,-47.492376,18.491568
1783977939.9588,14:25:39.958,4,false,0.437137,-0.591125,0.268005,0.62262,0.989273,0.180667,-0.156252,-30.323301,-47.49846,18.526596
1783977939.99,14:25:39.990,5,false,0.437111,-0.591125,0.268188,0.622559,0.994644,0.178714,-0.146975,-30.192016,-47.384305,18.543166
1783977940.0211,14:25:40.021,6,false,0.437056,-0.591064,0.268555,0.622498,0.985367,0.176761,-0.165042,-30.417798,-47.461011,18.528172
1783977940.0523,14:25:40.052,7,false,0.437014,-0.591003,0.268616,0.622559,0.982437,0.191897,-0.163577,-30.665863,-47.455278,18.439908
1783977940.0836,14:25:40.083,8,false,0.436663,-0.591125,0.268494,0.622742,0.98146,0.180179,-0.158206,-30.664815,-47.450118,18.285701
1783977940.1149,14:25:40.114,9,false,0.43616,-0.591064,0.268738,0.623047,0.98146,0.191897,-0.158206,-30.604055,-47.535197,18.206731
1783977940.1463,14:25:40.146,10,false,0.436122,-0.591064,0.268799,0.623047,0.985855,0.178714,-0.169436,-30.713864,-47.492137,18.255288
1783977940.1776,14:25:40.177,11,false,0.436149,-0.590942,0.269165,0.622986,0.983413,0.167483,-0.163577,-30.708015,-47.483291,18.22422
1783977940.209,14:25:40.209,12,false,0.435829,-0.590698,0.269653,0.62323,0.976577,0.164553,-0.152834,-30.77752,-47.59496,18.300936
1783977940.2403,14:25:40.240,13,false,0.435732,-0.590454,0.270203,0.623291,0.994156,0.172854,-0.152834,-30.765306,-47.620694,18.235396
1783977940.2716,14:25:40.271,14,false,0.435421,-0.590454,0.270142,0.623535,0.973648,0.156741,-0.155764,-30.903851,-47.643854,18.131548
1783977940.3028,14:25:40.302,15,false,0.435258,-0.590271,0.269958,0.623901,1.000504,0.174807,-0.155764,-30.789281,-47.619836,18.112854
1783977940.3339,14:25:40.333,16,false,0.434808,-0.590454,0.270142,0.623962,0.983902,0.178714,-0.165042,-30.865613,-47.687943,18.051168
1783977940.3653,14:25:40.365,17,false,0.434261,-0.590515,0.270325,0.624207,0.982437,0.156741,-0.154299,-30.889451,-47.86887,18.055466
1783977940.3964,14:25:40.396,18,false,0.434059,-0.590515,0.270508,0.624268,0.98439,0.155276,-0.154299,-30.611828,-47.956936,18.134103
1783977940.4275,14:25:40.427,19,false,0.433902,-0.590454,0.270752,0.624329,0.984878,0.169924,-0.153323,-30.556367,-47.961425,18.279646
1783977940.4589,14:25:40.458,20,false,0.433927,-0.590332,0.271118,0.624268,0.981949,0.167971,-0.145998,-30.446637,-47.90565,18.35082
1783977940.4902,14:25:40.490,21,false,0.433657,-0.590393,0.270996,0.624451,0.996597,0.173342,-0.158694,-30.273111,-47.855453,18.35506
1783977940.5216,14:25:40.521,22,false,0.433619,-0.590393,0.271057,0.624451,0.992203,0.16553,-0.162112,-30.28143,-48.019629,18.328969
1783977940.5529,14:25:40.552,23,false,0.433429,-0.59021,0.271057,0.624756,0.975601,0.16553,-0.147463,-30.333778,-48.017849,18.380256
1783977940.5842,14:25:40.584,24,false,0.433229,-0.59021,0.270813,0.625,0.976577,0.163088,-0.155276,-30.395846,-47.776986,18.336691
1783977940.6156,14:25:40.615,25,false,0.433018,-0.59021,0.270447,0.625305,0.990249,0.164553,-0.172366,-30.287214,-47.724701,18.20776
1783977940.6467,14:25:40.646,26,false,0.432779,-0.59021,0.270264,0.625549,0.989761,0.175296,-0.163088,-30.294122,-47.752414,18.31603
1783977940.6779,14:25:40.677,27,false,0.432969,-0.590088,0.270508,0.625427,0.981949,0.175296,-0.152346,-30.30034,-47.956802,18.338703
1783977940.709,14:25:40.709,28,false,0.433115,-0.590027,0.270691,0.625305,0.980972,0.16553,-0.151858,-30.305936,-47.991213,18.463786
1783977940.7401,14:25:40.740,29,false,0.432881,-0.590088,0.270508,0.625488,0.987808,0.171878,-0.166018,-30.355833,-47.917505,18.367007
1783977940.7713,14:25:40.771,30,false,0.432995,-0.589966,0.270874,0.625366,0.979507,0.167971,-0.160159,-30.296065,-48.09043,18.369629
1783977940.8026,14:25:40.802,31,false,0.432995,-0.589966,0.270874,0.625366,0.991714,0.163088,-0.162112,-30.451626,-48.15634,18.386942
1783977940.834,14:25:40.834,0,false,0.433002,-0.589905,0.270996,0.625366,0.984878,0.163088,-0.164065,-30.486955,-48.170796,18.432432
1783977940.8653,14:25:40.865,1,false,0.433065,-0.589783,0.271301,0.625305,0.989761,0.152834,-0.154788,-30.458936,-48.168854,18.38365
1783977940.8966,14:25:40.896,2,false,0.432711,-0.589905,0.271179,0.625488,0.990738,0.173831,-0.153323,-30.493533,-48.256828,18.294884
1783977940.928,14:25:40.928,3,false,0.432672,-0.589905,0.27124,0.625488,0.999527,0.171389,-0.149905,-30.345225,-48.395821,18.334626
1783977940.9593,14:25:40.959,4,false,0.432589,-0.589966,0.27124,0.625488,0.999527,0.176272,-0.149416,-30.286517,-48.446145,18.370394
1783977940.9907,14:25:40.990,5,false,0.432829,-0.589844,0.271545,0.625305,1.000015,0.166506,-0.161135,-30.368264,-48.476483,18.282954
1783977941.0218,14:25:41.021,6,false,0.432563,-0.589966,0.271423,0.625427,0.985855,0.16846,-0.14551,-30.411929,-48.384156,18.308935
1783977941.0529,14:25:41.052,7,false,0.432684,-0.589905,0.271362,0.625427,1.002457,0.167971,-0.155764,-30.271782,-48.33097,18.377179
1783977941.0841,14:25:41.084,8,false,0.432633,-0.590027,0.271179,0.625427,0.989761,0.166506,-0.157717,-30.310141,-48.283102,18.438599
1783977941.1152,14:25:41.115,9,false,0.432418,-0.590027,0.27124,0.625549,0.977066,0.170413,-0.163088,-30.284849,-48.359652,18.374246
1783977941.1464,14:25:41.146,10,false,0.432296,-0.590088,0.271301,0.625549,0.986343,0.175784,-0.151369,-30.217225,-48.473408,18.391098
1783977941.1775,14:25:41.177,11,false,0.431896,-0.590271,0.271118,0.625732,0.991714,0.163088,-0.14258,-30.141409,-48.486066,18.27168
1783977941.2087,14:25:41.208,12,false,0.431914,-0.59021,0.271362,0.625671,0.993179,0.1626,-0.150881,-30.222713,-48.557273,18.209065
1783977941.24,14:25:41.240,13,false,0.432098,-0.590149,0.271484,0.625549,0.987808,0.169436,-0.157229,-30.415518,-48.441913,18.152712
1783977941.2713,14:25:41.271,14,false,0.432053,-0.59021,0.271423,0.625549,0.996597,0.167483,-0.152834,-30.409596,-48.353044,18.221625
1783977941.3027,14:25:41.302,15,false,0.432198,-0.590149,0.271606,0.625427,0.983902,0.167483,-0.1626,-30.449128,-48.34783,18.178969
1783977941.334,14:25:41.334,16,false,0.432236,-0.590149,0.271545,0.625427,0.989761,0.170413,-0.157717,-30.424891,-48.298276,18.200395
1783977941.3652,14:25:41.365,17,false,0.431976,-0.59021,0.271545,0.625549,0.977554,0.164065,-0.156741,-30.447939,-48.253678,18.249586
1783977941.3963,14:25:41.396,18,false,0.432071,-0.590149,0.271667,0.625488,0.995621,0.169436,-0.162112,-30.513544,-48.303263,18.308811
1783977941.4274,14:25:41.427,19,false,0.432033,-0.590149,0.271729,0.625488,0.989273,0.166506,-0.149905,-30.647358,-48.273119,18.332206
1783977941.4588,14:25:41.458,20,false,0.432038,-0.59021,0.271729,0.625427,0.998062,0.170413,-0.154788,-30.528529,-48.260944,18.338308
1783977941.4899,14:25:41.489,21,false,0.431554,-0.590454,0.271545,0.62561,0.986343,0.161624,-0.145022,-30.496352,-48.249987,18.224169
1783977941.5211,14:25:41.521,22,false,0.43132,-0.590515,0.271362,0.625793,0.990249,0.160159,-0.1626,-30.422531,-48.210217,18.061629
1783977941.5522,14:25:41.552,23,false,0.431179,-0.590637,0.271179,0.625854,0.986343,0.176272,-0.154788,-30.415908,-48.264148,18.064881
1783977941.5835,14:25:41.583,24,false,0.431313,-0.590576,0.27124,0.625793,0.983413,0.176761,-0.168948,-30.335178,-48.237916,18.187438
1783977941.6149,14:25:41.614,25,false,0.430938,-0.590759,0.270874,0.626038,0.980972,0.173831,-0.158206,-30.307382,-48.244216,18.118294
1783977941.6462,14:25:41.646,26,false,0.43062,-0.590881,0.270691,0.626221,0.988785,0.162112,-0.163577,-30.372089,-48.234931,18.145787
1783977941.6776,14:25:41.677,27,false,0.430065,-0.591064,0.270325,0.626587,0.991714,0.162112,-0.160159,-30.265833,-48.211621,18.110715
1783977941.7089,14:25:41.708,28,false,0.42972,-0.591187,0.270325,0.626709,0.985855,0.154788,-0.149416,-30.244972,-48.115873,18.183828
1783977941.7402,14:25:41.740,29,false,0.429376,-0.591187,0.270447,0.626892,0.985855,0.174807,-0.162112,-30.286012,-48.044653,18.234675
1783977941.7716,14:25:41.771,30,false,0.429229,-0.591248,0.270264,0.627014,0.98732,0.160159,-0.167483,-30.143502,-48.040371,18.220623
1783977941.8027,14:25:41.802,31,false,0.429076,-0.591248,0.270081,0.627197,0.998062,0.175296,-0.168948,-30.134874,-48.111286,18.252837
1783977941.8339,14:25:41.833,0,false,0.429025,-0.591248,0.27002,0.627258,1.000015,0.164065,-0.156252,-30.201878,-48.17511,18.311737
1783977941.865,14:25:41.865,1,false,0.428949,-0.591553,0.269897,0.627075,0.98732,0.166018,-0.147951,-30.321997,-48.217597,18.275024
1783977941.8961,14:25:41.896,2,false,0.428875,-0.591736,0.269897,0.626953,0.986831,0.173342,-0.150881,-30.460012,-48.136205,18.46629
1783977941.9273,14:25:41.927,3,false,0.428625,-0.591797,0.27002,0.627014,0.976577,0.181155,-0.152346,-30.419733,-48.122768,18.369261
1783977941.9584,14:25:41.958,4,false,0.428574,-0.591797,0.269958,0.627075,0.987808,0.150881,-0.144045,-30.383482,-48.005997,18.491288
1783977941.9898,14:25:41.989,5,false,0.428446,-0.591797,0.27002,0.627136,0.98439,0.161135,-0.155276,-30.380763,-47.960719,18.346897
1783977942.0211,14:25:42.021,6,false,0.428497,-0.591797,0.270081,0.627075,0.991714,0.166506,-0.158694,-30.438132,-48.024646,18.456207
1783977942.0524,14:25:42.052,7,false,0.428413,-0.591858,0.270081,0.627075,1.00441,0.171389,-0.156741,-30.459856,-47.962549,18.449909
1783977942.0838,14:25:42.083,8,false,0.428425,-0.591858,0.270203,0.627014,0.979019,0.165042,-0.149905,-30.628947,-48.026293,18.504056
1783977942.1151,14:25:42.115,9,false,0.428514,-0.591858,0.270203,0.626953,0.995132,0.164553,-0.149905,-30.646543,-48.023846,18.433157
1783977942.1465,14:25:42.146,10,false,0.428577,-0.591858,0.270386,0.626831,0.995621,0.167483,-0.144045,-30.617519,-47.976783,18.369349
1783977942.1776,14:25:42.177,11,false,0.428396,-0.59198,0.270264,0.626892,1.001968,0.15967,-0.153811,-30.531581,-48.039103,18.371736
1783977942.2087,14:25:42.208,12,false,0.428261,-0.592041,0.270203,0.626953,0.982437,0.178714,-0.144045,-30.588822,-48.065284,18.343977
1783977942.2399,14:25:42.239,13,false,0.428233,-0.592163,0.270264,0.626831,0.992691,0.169924,-0.139651,-30.610431,-48.014077,18.363856
1783977942.271,14:25:42.271,14,false,0.428199,-0.592224,0.270325,0.62677,0.991226,0.169436,-0.151858,-30.614926,-48.132483,18.426608
1783977942.3022,14:25:42.302,15,false,0.428011,-0.592407,0.270081,0.626831,0.981949,0.16846,-0.148928,-30.484386,-48.044649,18.393362
1783977942.3335,14:25:42.333,16,false,0.427701,-0.592529,0.27002,0.626953,0.998062,0.174807,-0.154788,-30.456623,-48.13009,18.348487
1783977942.3649,14:25:42.364,17,false,0.427701,-0.592529,0.27002,0.626953,0.987808,0.14844,-0.147463,-30.506406,-48.057449,18.457638
1783977942.3962,14:25:42.396,18,false,0.427617,-0.59259,0.27002,0.626953,0.987808,0.170901,-0.140139,-30.551211,-48.111702,18.406335
1783977942.4275,14:25:42.427,19,false,0.427532,-0.592651,0.27002,0.626953,0.997086,0.16846,-0.147463,-30.606489,-47.951177,18.375116
1783977942.4589,14:25:42.458,20,false,0.42752,-0.592651,0.269897,0.627014,0.995621,0.169436,-0.165042,-30.566516,-47.971196,18.406835
1783977942.4902,14:25:42.490,21,false,0.427609,-0.592651,0.269897,0.626953,0.99855,0.177249,-0.160159,-30.575402,-48.063983,18.405474
1783977942.5216,14:25:42.521,22,false,0.427138,-0.592834,0.269531,0.627258,0.990738,0.164553,-0.157717,-30.403953,-48.057768,18.419203
1783977942.5527,14:25:42.552,23,false,0.427087,-0.592834,0.26947,0.627319,0.985855,0.182132,-0.144533,-30.473957,-48.007312,18.28202
1783977942.5838,14:25:42.583,24,false,0.426756,-0.592712,0.269836,0.627502,0.980972,0.162112,-0.15967,-30.522006,-47.99181,18.427725
1783977942.615,14:25:42.615,25,false,0.42622,-0.592896,0.269714,0.627747,0.9673,0.163577,-0.159182,-30.430666,-47.947951,18.214922
1783977942.6461,14:25:42.646,26,false,0.426125,-0.592834,0.269714,0.627869,0.993668,0.15967,-0.157229,-30.363414,-47.968293,18.232752
1783977942.6773,14:25:42.677,27,false,0.426006,-0.592957,0.269775,0.627808,0.984878,0.160159,-0.151369,-30.362702,-48.046416,18.188984
1783977942.7086,14:25:42.708,28,false,0.42578,-0.593018,0.269714,0.62793,0.992203,0.160159,-0.144533,-30.257385,-48.071865,18.1795
1783977942.7399,14:25:42.739,29,false,0.425729,-0.593018,0.269653,0.627991,0.977554,0.153323,-0.155764,-30.1626,-48.169539,18.170965
1783977942.7713,14:25:42.771,30,false,0.425463,-0.593079,0.269653,0.628113,1.000015,0.167483,-0.152834,-30.1072,-48.182675,18.058607
1783977942.8026,14:25:42.802,31,false,0.425373,-0.593079,0.269653,0.628174,0.983413,0.154788,-0.146487,-30.236787,-48.104776,18.151884
1783977942.834,14:25:42.834,0,false,0.425595,-0.592957,0.269714,0.628113,0.990738,0.160159,-0.151858,-30.428184,-48.154297,18.205926
1783977942.8653,14:25:42.865,1,false,0.42577,-0.592896,0.269714,0.628052,0.989761,0.169436,-0.150881,-30.480811,-48.154004,18.254563
1783977942.8964,14:25:42.896,2,false,0.425875,-0.592773,0.269958,0.627991,0.990738,0.174319,-0.151369,-30.303867,-48.198602,18.403014
1783977942.9276,14:25:42.927,3,false,0.425798,-0.592773,0.270081,0.627991,0.993668,0.164065,-0.152834,-30.353972,-48.283602,18.446897
1783977942.9587,14:25:42.958,4,false,0.425118,-0.592957,0.269897,0.628357,0.987808,0.162112,-0.144533,-30.324297,-48.330194,18.411622
1783977942.9899,14:25:42.989,5,false,0.42493,-0.593018,0.269775,0.628479,0.980484,0.152346,-0.147951,-30.327497,-48.327265,18.454644
1783977943.021,14:25:43.021,6,false,0.424793,-0.593079,0.269714,0.62854,0.987808,0.160159,-0.155764,-30.270562,-48.309676,18.149425
1783977943.0521,14:25:43.052,7,false,0.424429,-0.593506,0.269348,0.62854,0.994644,0.165042,-0.136721,-30.309043,-48.144307,18.278482
1783977943.0833,14:25:43.083,8,false,0.424529,-0.593628,0.269348,0.628357,0.971206,0.170901,-0.148928,-30.16423,-48.204828,18.439495
1783977943.1146,14:25:43.114,9,false,0.424218,-0.593933,0.268738,0.62854,0.994644,0.156741,-0.151369,-30.153529,-47.960221,18.479729
1783977943.146,14:25:43.146,10,false,0.424278,-0.593872,0.268921,0.628479,0.988785,0.166018,-0.144045,-30.323345,-47.889613,18.51594
1783977943.1773,14:25:43.177,11,false,0.424179,-0.593933,0.268799,0.62854,0.973648,0.164065,-0.146975,-30.386455,-48.020465,18.563484
1783977943.2086,14:25:43.208,12,false,0.424215,-0.594055,0.268616,0.628479,0.985367,0.169436,-0.157717,-30.353532,-48.123279,18.561412
1783977943.24,14:25:43.240,13,false,0.424215,-0.594055,0.268616,0.628479,0.992691,0.164553,-0.150393,-30.503347,-48.036365,18.380101
1783977943.2713,14:25:43.271,14,false,0.423875,-0.594177,0.268311,0.628723,0.993668,0.163088,-0.147951,-30.428827,-47.868419,18.441229
1783977943.3025,14:25:43.302,15,false,0.423841,-0.594238,0.268372,0.628662,0.987808,0.173342,-0.156252,-30.451482,-47.866807,18.466336
1783977943.3336,14:25:43.333,16,false,0.423798,-0.594177,0.268433,0.628723,0.991714,0.158694,-0.148928,-30.412056,-47.910217,18.473979
1783977943.3647,14:25:43.364,17,false,0.42366,-0.594238,0.268372,0.628784,0.981949,0.16553,-0.143557,-30.316757,-47.859563,18.391134
1783977943.3959,14:25:43.395,18,false,0.42366,-0.594238,0.268372,0.628784,0.992691,0.166018,-0.151858,-30.260896,-47.963513,18.451159
1783977943.427,14:25:43.427,19,false,0.42365,-0.594604,0.268005,0.628601,1.000992,0.169924,-0.157229,-30.195667,-48.042114,18.38555
1783977943.4582,14:25:43.458,20,false,0.423423,-0.594849,0.267822,0.628601,0.988296,0.166018,-0.150393,-30.241637,-48.053039,18.266687
1783977943.4895,14:25:43.489,21,false,0.423181,-0.59491,0.267639,0.628784,0.988785,0.153811,-0.156252,-30.283011,-48.062872,18.234479
1783977943.5208,14:25:43.520,22,false,0.423384,-0.594849,0.267883,0.628601,0.997086,0.166506,-0.151858,-30.215571,-48.056768,18.340077
1783977943.5522,14:25:43.552,23,false,0.423307,-0.594849,0.268005,0.628601,0.979995,0.168948,-0.146975,-30.304413,-48.051274,18.465022
1783977943.5835,14:25:43.583,24,false,0.423018,-0.594971,0.267761,0.628784,0.98732,0.166506,-0.141604,-30.219878,-48.106145,18.308304
1783977943.6147,14:25:43.614,25,false,0.42307,-0.594971,0.267822,0.628723,0.996597,0.16846,-0.151369,-30.203612,-48.200391,18.286889
1783977943.6458,14:25:43.645,26,false,0.422971,-0.595032,0.2677,0.628784,0.98439,0.157229,-0.150393,-30.218881,-48.135673,18.342384
1783977943.677,14:25:43.677,27,false,0.423036,-0.595032,0.267883,0.628662,0.976089,0.172854,-0.144533,-30.232623,-48.152197,18.497006
1783977943.7081,14:25:43.708,28,false,0.422846,-0.595093,0.267761,0.628784,0.991226,0.1626,-0.154788,-30.24499,-48.241837,18.53149
1783977943.7392,14:25:43.739,29,false,0.422518,-0.595215,0.267578,0.628967,0.991714,0.167483,-0.14844,-30.360798,-48.202883,18.547571
1783977943.7704,14:25:43.770,30,false,0.422622,-0.595215,0.2677,0.628845,0.995621,0.15967,-0.146487,-30.345394,-48.167824,18.636813
1783977943.8015,14:25:43.801,31,false,0.422329,-0.595276,0.267883,0.628906,0.980484,0.15967,-0.155276,-30.331531,-48.136271,18.642362
1783977943.8329,14:25:43.832,0,false,0.421659,-0.595337,0.267944,0.629272,0.999527,0.155764,-0.143557,-30.438684,-48.063011,18.677264
1783977943.8642,14:25:43.864,1,false,0.421055,-0.595459,0.267761,0.629639,0.999039,0.16553,-0.139162,-30.295861,-48.071847,18.574091
1783977943.8955,14:25:43.895,2,false,0.420519,-0.595459,0.267456,0.630127,0.98146,0.150881,-0.147951,-30.16732,-48.079799,18.436373
1783977943.9269,14:25:43.926,3,false,0.420466,-0.595459,0.267395,0.630188,0.997086,0.153811,-0.154788,-30.260987,-48.10191,18.342335
1783977943.9582,14:25:43.958,4,false,0.420894,-0.595276,0.267273,0.630127,0.989761,0.169924,-0.145998,-30.390149,-48.047041,18.437147
1783977943.9896,14:25:43.989,5,false,0.421289,-0.595337,0.26709,0.629883,1.001968,0.164065,-0.151858,-30.446579,-47.982704,18.387894
1783977944.0209,14:25:44.020,6,false,0.421347,-0.595398,0.267151,0.629761,0.983413,0.164065,-0.158206,-30.51232,-48.134156,18.433288
1783977944.052,14:25:44.052,7,false,0.421534,-0.595459,0.267151,0.629578,0.982437,0.161624,-0.143069,-30.616349,-48.120923,18.474144
1783977944.0832,14:25:44.083,8,false,0.421794,-0.595459,0.267029,0.629456,0.995132,0.173342,-0.14551,-30.530529,-48.228645,18.391282
1783977944.1143,14:25:44.114,9,false,0.422064,-0.595154,0.266418,0.629822,0.993668,0.178225,-0.157717,-30.557967,-48.101286,18.361569
1783977944.1455,14:25:44.145,10,false,0.422909,-0.594666,0.266602,0.629639,0.981949,0.16553,-0.153811,-30.567708,-48.106295,18.499319
1783977944.1766,14:25:44.176,11,false,0.423708,-0.594116,0.266846,0.629517,0.976577,0.170901,-0.16846,-30.606382,-48.155664,18.623294
1783977944.2077,14:25:44.207,12,false,0.423931,-0.593872,0.266602,0.6297,1.000504,0.169924,-0.155276,-30.491651,-48.080465,18.555426
1783977944.2391,14:25:44.239,13,false,0.42394,-0.593811,0.266724,0.6297,0.988296,0.161624,-0.15967,-30.343531,-48.132417,18.494344
1783977944.2704,14:25:44.270,14,false,0.423572,-0.59375,0.266724,0.630005,0.989273,0.1626,-0.160159,-30.374715,-48.209081,18.544048
1783977944.3018,14:25:44.301,15,false,0.423809,-0.593628,0.266907,0.629883,0.98732,0.163577,-0.160159,-30.313058,-48.278079,18.558873
1783977944.3331,14:25:44.333,16,false,0.423719,-0.593628,0.266907,0.629944,0.997086,0.173831,-0.152346,-30.242613,-48.250455,18.557262
1783977944.3642,14:25:44.364,17,false,0.423685,-0.593689,0.266968,0.629883,0.988785,0.163088,-0.160159,-30.224074,-48.330269,18.510951
1783977944.3954,14:25:44.395,18,false,0.42354,-0.593628,0.267334,0.629883,0.989273,0.163088,-0.150393,-30.162527,-48.252564,18.588901
1783977944.4265,14:25:44.426,19,false,0.423471,-0.593567,0.267578,0.629883,0.988785,0.15967,-0.156741,-30.226766,-48.332167,18.509518
1783977944.4577,14:25:44.457,20,false,0.423342,-0.593567,0.267639,0.629944,0.994644,0.163088,-0.151369,-30.35935,-48.254272,18.467981
1783977944.4888,14:25:44.488,21,false,0.423317,-0.593567,0.267822,0.629883,0.991714,0.156741,-0.147951,-30.433814,-48.229028,18.505367
1783977944.5199,14:25:44.519,22,false,0.423336,-0.593628,0.267944,0.629761,0.982925,0.175784,-0.145022,-30.336339,-48.221262,18.419384
1783977944.5511,14:25:44.551,23,false,0.423435,-0.593567,0.268066,0.6297,0.992203,0.164065,-0.143069,-30.457966,-48.199319,18.566306
1783977944.5824,14:25:44.582,24,false,0.423357,-0.593567,0.268188,0.6297,0.999527,0.155764,-0.148928,-30.37303,-48.25434,18.51909
1783977944.6138,14:25:44.613,25,false,0.423574,-0.593506,0.268555,0.629456,0.982925,0.164553,-0.147463,-30.476034,-48.348719,18.611181
1783977944.6451,14:25:44.645,26,false,0.423771,-0.593384,0.268799,0.629333,0.991714,0.160647,-0.149905,-30.449106,-48.224308,18.619293
1783977944.6764,14:25:44.676,27,false,0.423655,-0.593384,0.268982,0.629333,0.998062,0.164065,-0.149416,-30.499641,-48.187106,18.656501
1783977944.7078,14:25:44.707,28,false,0.423736,-0.593262,0.269409,0.629211,0.997574,0.150393,-0.152346,-30.455399,-48.123717,18.645128
1783977944.7391,14:25:44.739,29,false,0.423412,-0.593262,0.269775,0.629272,0.98732,0.14844,-0.144045,-30.654842,-48.051713,18.619937
1783977944.7703,14:25:44.770,30,false,0.423453,-0.59314,0.270264,0.62915,0.977066,0.157717,-0.148928,-30.624988,-48.076633,18.61222
1783977944.8014,14:25:44.801,31,false,0.423147,-0.593201,0.270325,0.629272,0.975113,0.152346,-0.14551,-30.672888,-47.964476,18.560413
1783977944.8325,14:25:44.832,0,false,0.423147,-0.593201,0.270325,0.629272,0.991714,0.152834,-0.151369,-30.775814,-48.057934,18.498833
1783977944.8637,14:25:44.863,1,false,0.422945,-0.593262,0.270508,0.629272,0.989273,0.16846,-0.149416,-30.509555,-48.052324,18.63781
1783977944.8948,14:25:44.894,2,false,0.422651,-0.593323,0.270691,0.629333,0.999527,0.168948,-0.146487,-30.628814,-48.062228,18.673167
1783977944.926,14:25:44.926,3,false,0.42278,-0.593018,0.270874,0.629456,0.983413,0.145998,-0.151369,-30.601562,-48.280496,18.510588
1783977944.9571,14:25:44.957,4,false,0.423042,-0.59259,0.270691,0.629761,0.979507,0.140139,-0.153811,-30.681713,-48.312445,18.45399
1783977944.9883,14:25:44.988,5,false,0.423438,-0.592224,0.270447,0.629944,1.000992,0.150393,-0.156741,-30.753848,-48.146799,18.447914
1783977945.0196,14:25:45.019,6,false,0.423653,-0.592163,0.270813,0.6297,0.991714,0.165042,-0.155276,-30.848678,-48.147256,18.442445
1783977945.0509,14:25:45.050,7,false,0.423441,-0.59198,0.271118,0.629883,0.980484,0.15967,-0.150881,-30.829347,-48.147668,18.467431
1783977945.0823,14:25:45.082,8,false,0.423177,-0.591797,0.271362,0.630127,0.986343,0.150393,-0.156252,-30.677366,-48.31253,18.325426
1783977945.1136,14:25:45.113,9,false,0.42241,-0.591797,0.271423,0.630615,0.993668,0.147951,-0.144045,-30.645259,-48.206691,18.347159
1783977945.145,14:25:45.145,10,false,0.42228,-0.591797,0.271484,0.630676,0.997086,0.141604,-0.142092,-30.601409,-48.380605,18.411581
1783977945.1763,14:25:45.176,11,false,0.422215,-0.591675,0.271851,0.630676,0.990738,0.151858,-0.155276,-30.576898,-48.342726,18.499469
1783977945.2074,14:25:45.207,12,false,0.422185,-0.59137,0.272278,0.630798,0.98146,0.147463,-0.144045,-30.390346,-48.503038,18.593521
1783977945.2386,14:25:45.238,13,false,0.422187,-0.591125,0.272522,0.63092,0.988296,0.146975,-0.14551,-30.431802,-48.557594,18.588445
1783977945.2697,14:25:45.269,14,false,0.422143,-0.590942,0.272705,0.631042,0.996109,0.153323,-0.156741,-30.45416,-48.66651,18.598831
1783977945.3009,14:25:45.300,15,false,0.422274,-0.59082,0.272766,0.631042,1.00148,0.153811,-0.160159,-30.474281,-48.764534,18.608178
1783977945.332,14:25:45.332,16,false,0.422157,-0.590942,0.2724,0.631165,0.996109,0.147463,-0.155764,-30.462483,-48.613495,18.452098
1783977945.3633,14:25:45.363,17,false,0.421961,-0.591064,0.272156,0.631287,0.993179,0.150881,-0.14258,-30.227557,-48.627098,18.356488
1783977945.3947,14:25:45.394,18,false,0.421754,-0.591614,0.271423,0.631226,0.992691,0.161135,-0.150881,-30.225477,-48.624386,18.210623
1783977945.426,14:25:45.426,19,false,0.421595,-0.591858,0.270996,0.631287,0.990249,0.159182,-0.147951,-30.089021,-48.592038,18.378422
1783977945.4574,14:25:45.457,20,false,0.421484,-0.591919,0.270752,0.631409,0.988785,0.143557,-0.152346,-30.040979,-48.428341,18.424764
1783977945.4886,14:25:45.488,21,false,0.421209,-0.591919,0.270752,0.631592,0.995132,0.148928,-0.149416,-30.192142,-48.460459,18.466471
1783977945.5197,14:25:45.519,22,false,0.421216,-0.591858,0.270874,0.631592,0.984878,0.152346,-0.156741,-30.253419,-48.519273,18.369424
1783977945.5511,14:25:45.551,23,false,0.42106,-0.591858,0.270691,0.631775,0.988296,0.160647,-0.157717,-30.263707,-48.542298,18.311988
1783977945.5824,14:25:45.582,24,false,0.420943,-0.591736,0.270996,0.631836,0.992203,0.161135,-0.16846,-30.392597,-48.563021,18.364974
1783977945.6136,14:25:45.613,25,false,0.420838,-0.591736,0.271301,0.631775,1.009781,0.147951,-0.152346,-30.28429,-48.536809,18.337891
1783977945.6447,14:25:45.644,26,false,0.419513,-0.592285,0.271301,0.632141,0.987808,0.155764,-0.147951,-30.261583,-48.513219,18.358378
1783977945.6758,14:25:45.675,27,false,0.418762,-0.592407,0.271484,0.632446,0.974624,0.143557,-0.134279,-30.271055,-48.417219,18.331955
1783977945.707,14:25:45.707,28,false,0.418039,-0.592163,0.271423,0.633179,0.990249,0.143069,-0.14551,-30.115087,-48.495311,18.338082
1783977945.7381,14:25:45.738,29,false,0.417847,-0.592224,0.271301,0.633301,0.993179,0.132815,-0.153811,-30.1093,-48.475871,18.283781
1783977945.7695,14:25:45.769,30,false,0.418073,-0.592102,0.271362,0.63324,0.993668,0.131838,-0.147463,-30.104092,-48.533144,18.264818
1783977945.8008,14:25:45.800,31,false,0.418579,-0.592285,0.271179,0.632813,0.997086,0.150393,-0.14258,-30.114359,-48.569735,18.337474
1783977945.8321,14:25:45.832,0,false,0.419904,-0.592529,0.270874,0.631836,0.996597,0.147463,-0.150881,-30.108645,-48.587714,18.387911
1783977945.8635,14:25:45.863,1,false,0.420036,-0.592957,0.270447,0.631531,0.985855,0.149416,-0.147463,-30.043688,-48.648757,18.388442
1783977945.8947,14:25:45.894,2,false,0.419929,-0.593079,0.270203,0.631592,0.988785,0.153323,-0.146487,-30.11981,-48.509295,18.403874
1783977945.9259,14:25:45.925,3,false,0.419637,-0.593201,0.269531,0.631958,0.985855,0.152346,-0.163088,-30.083644,-48.578179,18.402809
1783977945.957,14:25:45.957,4,false,0.419696,-0.59314,0.269287,0.63208,1.00148,0.155276,-0.151858,-30.155771,-48.670083,18.342035
1783977945.9883,14:25:45.988,5,false,0.419604,-0.59314,0.269287,0.632141,0.985367,0.153811,-0.140139,-30.116008,-48.588304,18.197616
1783977946.0195,14:25:46.019,6,false,0.419365,-0.593262,0.269104,0.632263,0.995621,0.156741,-0.152346,-30.03536,-48.559564,18.232131
1783977946.0506,14:25:46.050,7,false,0.418999,-0.59314,0.269226,0.632568,0.980484,0.161135,-0.157229,-30.007639,-48.593514,18.173471
1783977946.0818,14:25:46.081,8,false,0.418269,-0.593079,0.269348,0.633057,0.992203,0.157717,-0.155276,-30.087366,-48.534346,18.2104
1783977946.1131,14:25:46.113,9,false,0.418337,-0.592957,0.269653,0.632996,0.980484,0.152834,-0.150393,-30.159121,-48.555863,18.243637
1783977946.1444,14:25:46.144,10,false,0.418105,-0.593018,0.269592,0.633118,0.979507,0.156741,-0.143069,-30.089115,-48.620091,18.213734
1783977946.1758,14:25:46.175,11,false,0.417684,-0.593018,0.269958,0.63324,0.988296,0.140139,-0.145998,-30.115834,-48.707803,18.201775
1783977946.2071,14:25:46.207,12,false,0.417698,-0.593018,0.270081,0.633179,0.994156,0.147463,-0.149905,-30.13988,-48.532529,18.191013
1783977946.2385,14:25:46.238,13,false,0.417481,-0.592957,0.270264,0.633301,0.986831,0.145022,-0.159182,-30.101707,-48.539275,18.166372
1783977946.2698,14:25:46.269,14,false,0.417296,-0.592957,0.270264,0.633423,0.986831,0.136233,-0.155764,-30.037443,-48.605161,18.069427
1783977946.3012,14:25:46.301,15,false,0.417013,-0.592896,0.270691,0.633484,0.993179,0.137697,-0.158206,-30.129144,-48.604643,18.101807
1783977946.3323,14:25:46.332,16,false,0.41702,-0.592834,0.270813,0.633484,0.994156,0.141115,-0.140139,-30.196721,-48.57427,18.071133
1783977946.3634,14:25:46.363,17,false,0.416647,-0.592957,0.270691,0.633667,0.990249,0.139162,-0.147463,-30.078094,-48.606749,17.983712
1783977946.3946,14:25:46.394,18,false,0.416422,-0.592957,0.270752,0.633789,0.986343,0.153323,-0.147951,-30.046099,-48.606073,17.979801
1783977946.4257,14:25:46.425,19,false,0.416352,-0.592773,0.271118,0.63385,0.982437,0.138186,-0.144533,-29.92758,-48.650325,17.931421
1783977946.4569,14:25:46.456,20,false,0.416234,-0.592651,0.271423,0.633911,1.01564,0.158694,-0.143069,-29.940544,-48.690153,17.947693
1783977946.488,14:25:46.488,21,false,0.416293,-0.592712,0.271912,0.633606,0.986343,0.141604,-0.147951,-30.056889,-48.845628,18.0072
1783977946.5193,14:25:46.519,22,false,0.416353,-0.592529,0.272644,0.633423,0.989273,0.142092,-0.151858,-30.131691,-48.940695,18.090664
1783977946.5507,14:25:46.550,23,false,0.41614,-0.592529,0.272827,0.633484,0.999527,0.132326,-0.150881,-30.094337,-48.906624,18.076059
1783977946.582,14:25:46.582,24,false,0.41606,-0.592529,0.272949,0.633484,1.000504,0.145022,-0.157229,-30.015856,-48.920821,17.973191
1783977946.6134,14:25:46.613,25,false,0.415761,-0.592468,0.273254,0.633606,0.984878,0.124025,-0.145022,-30.019993,-49.008368,18.030148
1783977946.6447,14:25:46.644,26,false,0.41568,-0.592468,0.273376,0.633606,1.000504,0.139162,-0.151369,-30.038669,-48.967529,18.066456
1783977946.676,14:25:46.676,27,false,0.415687,-0.592407,0.273499,0.633606,0.99855,0.125002,-0.141604,-29.980709,-49.06536,18.12904
1783977946.7072,14:25:46.707,28,false,0.414961,-0.592468,0.273621,0.633972,1.002457,0.128908,-0.145022,-30.137899,-49.033776,17.990967
1783977946.7383,14:25:46.738,29,false,0.41502,-0.592407,0.273804,0.633911,0.997574,0.145998,-0.148928,-30.129831,-49.154889,18.120916
1783977946.7695,14:25:46.769,30,false,0.4148,-0.592346,0.273987,0.634033,0.996109,0.123049,-0.143069,-30.152478,-49.189122,18.267777
1783977946.8006,14:25:46.800,31,false,0.414993,-0.592285,0.274109,0.633911,0.989273,0.141604,-0.155764,-30.17286,-49.219931,18.370045
1783977946.8317,14:25:46.831,0,false,0.414872,-0.592163,0.274414,0.633972,0.999039,0.135744,-0.145022,-30.17625,-49.113075,18.372363
1783977946.8629,14:25:46.862,1,false,0.414692,-0.592224,0.274414,0.634033,0.996597,0.127932,-0.141604,-30.164347,-49.07672,18.523988
1783977946.8942,14:25:46.894,2,false,0.41495,-0.592041,0.274841,0.63385,0.985367,0.134768,-0.151858,-30.362988,-49.133723,18.510911
1783977946.9256,14:25:46.925,3,false,0.414729,-0.592102,0.274902,0.633911,0.984878,0.125978,-0.143557,-30.362319,-49.095303,18.514097
1783977946.9569,14:25:46.956,4,false,0.414788,-0.592041,0.275085,0.63385,0.983902,0.131838,-0.151858,-30.346763,-49.255125,18.531917
1783977946.9882,14:25:46.988,5,false,0.414649,-0.59198,0.275146,0.633972,0.991226,0.129885,-0.145998,-30.213132,-49.189611,18.398417
1783977947.0194,14:25:47.019,6,false,0.414362,-0.592041,0.275024,0.634155,0.988785,0.125002,-0.144533,-30.018095,-49.235325,18.353036
1783977947.0505,14:25:47.050,7,false,0.414135,-0.592041,0.275085,0.634277,0.994156,0.134279,-0.154299,-30.096777,-49.336284,18.476686
1783977947.0817,14:25:47.081,8,false,0.413901,-0.592102,0.275024,0.634399,0.991714,0.14551,-0.154788,-30.107775,-49.217792,18.46834
1783977947.1128,14:25:47.112,9,false,0.413655,-0.592163,0.274841,0.634583,0.996597,0.134279,-0.145998,-30.10272,-49.200873,18.430921
1783977947.1439,14:25:47.143,10,false,0.41358,-0.592102,0.275085,0.634583,1.00148,0.136721,-0.156252,-30.232754,-49.140784,18.486967
1783977947.1751,14:25:47.175,11,false,0.413527,-0.592102,0.275024,0.634644,0.99855,0.124514,-0.147951,-30.28997,-49.101658,18.387869
1783977947.2062,14:25:47.206,12,false,0.41322,-0.592224,0.274658,0.634888,1.007828,0.142092,-0.158694,-30.191926,-49.066445,18.478128
1783977947.2376,14:25:47.237,13,false,0.413355,-0.592346,0.274475,0.634766,0.992203,0.161135,-0.14844,-30.133594,-49.109522,18.409822
1783977947.2689,14:25:47.268,14,false,0.412958,-0.592407,0.274658,0.634888,0.995132,0.138674,-0.151858,-30.066142,-49.238014,18.288532
1783977947.3002,14:25:47.300,15,false,0.412535,-0.592468,0.274597,0.635132,0.987808,0.134768,-0.137697,-30.020388,-49.219073,18.269093
1783977947.3316,14:25:47.331,16,false,0.412219,-0.592407,0.27478,0.635315,0.993668,0.137697,-0.157229,-29.97921,-49.127256,18.401137
1783977947.3629,14:25:47.362,17,false,0.412103,-0.592102,0.27533,0.635437,0.986343,0.119142,-0.150881,-29.957103,-49.179206,18.505023
1783977947.3943,14:25:47.394,18,false,0.412062,-0.59198,0.275513,0.635498,0.999039,0.12842,-0.150881,-29.817577,-49.315684,18.583566
1783977947.4254,14:25:47.425,19,false,0.411926,-0.591858,0.275696,0.63562,1.011246,0.121584,-0.152834,-29.811633,-49.378698,18.669209
1783977947.4565,14:25:47.456,20,false,0.411737,-0.591736,0.275818,0.635803,0.995621,0.131838,-0.146487,-29.761423,-49.315781,18.686472
1783977947.4877,14:25:47.487,21,false,0.411514,-0.591797,0.275879,0.635864,0.991714,0.13135,-0.141115,-29.761095,-49.348878,18.716963
1783977947.5188,14:25:47.518,22,false,0.411343,-0.591614,0.276245,0.635986,1.003433,0.119631,-0.145022,-29.641169,-49.363712,18.699543
1783977947.55,14:25:47.550,23,false,0.411072,-0.591614,0.276367,0.636108,0.992203,0.129397,-0.144045,-29.697728,-49.392016,18.728726
1783977947.5811,14:25:47.581,24,false,0.411178,-0.591492,0.276611,0.636047,0.99855,0.131838,-0.160647,-29.733678,-49.581982,18.740038
1783977947.6123,14:25:47.612,25,false,0.41113,-0.591431,0.276672,0.636108,0.999039,0.129397,-0.145022,-29.616494,-49.678182,18.645541
1783977947.6436,14:25:47.643,26,false,0.410955,-0.591553,0.276672,0.636108,0.99855,0.127932,-0.145022,-29.55589,-49.704947,18.62031
1783977947.6749,14:25:47.674,27,false,0.410778,-0.591553,0.276794,0.636169,0.994644,0.118166,-0.145998,-29.531254,-49.788851,18.642463
1783977947.7063,14:25:47.706,28,false,0.410825,-0.591492,0.276855,0.636169,0.98732,0.127443,-0.152834,-29.553943,-49.72978,18.572677
1783977947.7376,14:25:47.737,29,false,0.410595,-0.591492,0.276917,0.636292,0.982925,0.130861,-0.141115,-29.619224,-49.646708,18.554732
1783977947.769,14:25:47.769,30,false,0.4104,-0.591553,0.276794,0.636414,0.986831,0.126467,-0.156741,-29.618163,-49.661666,18.448858
1783977947.8001,14:25:47.800,31,false,0.410317,-0.591553,0.276917,0.636414,1.00148,0.127932,-0.159182,-29.602253,-49.764852,18.50311
1783977947.8312,14:25:47.831,0,false,0.410282,-0.591492,0.2771,0.636414,1.00148,0.124025,-0.149416,-29.602888,-49.812857,18.432306
1783977947.8624,14:25:47.862,1,false,0.410334,-0.59137,0.277283,0.636414,1.005386,0.115724,-0.154299,-29.678229,-49.781293,18.548029
1783977947.8935,14:25:47.893,2,false,0.410398,-0.591248,0.277588,0.636353,0.993179,0.12842,-0.152346,-29.850713,-49.872516,18.562456
1783977947.9247,14:25:47.924,3,false,0.410557,-0.591125,0.277893,0.63623,1.002457,0.125978,-0.157717,-29.826502,-49.969571,18.560487
1783977947.9558,14:25:47.955,4,false,0.410264,-0.591309,0.278076,0.636169,0.983902,0.119631,-0.153323,-29.90939,-49.937289,18.498899
1783977947.9869,14:25:47.986,5,false,0.409796,-0.591309,0.278625,0.63623,0.988785,0.119142,-0.138674,-29.849404,-49.997958,18.63787
1783977948.0183,14:25:48.018,6,false,0.409234,-0.59137,0.278625,0.636536,0.989761,0.114748,-0.141604,-29.885139,-49.962838,18.568544
1783977948.0496,14:25:48.049,7,false,0.409054,-0.591248,0.27887,0.636658,0.987808,0.121584,-0.152834,-29.902347,-49.916276,18.565966
1783977948.081,14:25:48.081,8,false,0.409047,-0.591187,0.27887,0.636719,0.996597,0.103029,-0.150393,-30.052419,-49.994,18.608507
1783977948.1123,14:25:48.112,9,false,0.409064,-0.591125,0.279114,0.636658,0.999039,0.124514,-0.145998,-30.0529,-50.048999,18.557071
1783977948.1436,14:25:48.143,10,false,0.409222,-0.591003,0.279419,0.636536,0.982437,0.115724,-0.135256,-29.978563,-50.098497,18.555641
1783977948.175,14:25:48.175,11,false,0.409127,-0.591003,0.279419,0.636597,0.999039,0.132815,-0.140139,-29.941567,-50.038369,18.509491
1783977948.2063,14:25:48.206,12,false,0.408883,-0.591003,0.279358,0.63678,0.991226,0.126955,-0.156252,-29.878363,-50.014161,18.617496
1783977948.2377,14:25:48.237,13,false,0.40893,-0.590942,0.279419,0.63678,1.005386,0.118654,-0.143069,-29.896249,-50.097051,18.565161
1783977948.2688,14:25:48.268,14,false,0.408586,-0.591003,0.279236,0.637024,0.993668,0.126955,-0.148928,-29.882439,-50.081929,18.428336
1783977948.2999,14:25:48.299,15,false,0.408598,-0.591003,0.279358,0.636963,0.994644,0.117189,-0.146975,-29.974686,-50.098227,18.394918
1783977948.3311,14:25:48.331,16,false,0.408856,-0.59082,0.279785,0.63678,1.000504,0.120119,-0.153323,-30.057709,-49.918495,18.514379
1783977948.3624,14:25:48.362,17,false,0.408666,-0.59082,0.279785,0.636902,1.000015,0.118166,-0.14258,-29.952983,-49.891321,18.502264
1783977948.3938,14:25:48.393,18,false,0.408329,-0.590942,0.279602,0.637085,0.997086,0.112306,-0.141604,-29.993315,-49.85191,18.431544
1783977948.4251,14:25:48.425,19,false,0.408138,-0.590942,0.279602,0.637207,0.997086,0.118654,-0.144045,-30.104382,-49.771579,18.472574
1783977948.4564,14:25:48.456,20,false,0.407906,-0.590942,0.279663,0.637329,0.995132,0.112306,-0.147463,-30.054805,-49.744143,18.330055
1783977948.4878,14:25:48.487,21,false,0.407769,-0.590942,0.279724,0.63739,0.988296,0.121096,-0.157717,-29.8756,-49.839081,18.441048
1783977948.5191,14:25:48.519,22,false,0.407915,-0.59082,0.279907,0.637329,0.995132,0.117189,-0.143557,-29.968531,-49.939479,18.406358
1783977948.5503,14:25:48.550,23,false,0.407494,-0.590942,0.279846,0.637512,1.008316,0.109865,-0.141115,-29.902631,-49.92516,18.419999
1783977948.5814,14:25:48.581,24,false,0.407303,-0.590942,0.279846,0.637634,1.003433,0.116701,-0.152834,-29.843321,-49.882366,18.432275
1783977948.6125,14:25:48.612,25,false,0.407107,-0.591003,0.279724,0.637756,0.993179,0.107424,-0.148928,-29.655357,-49.858805,18.383509
1783977948.6439,14:25:48.643,26,false,0.407224,-0.590881,0.28009,0.637634,0.991714,0.112306,-0.141604,-29.770313,-49.852553,18.474203
1783977948.675,14:25:48.675,27,false,0.407247,-0.590881,0.280334,0.637512,1.001968,0.121096,-0.131838,-29.679373,-49.891789,18.585736
1783977948.7062,14:25:48.706,28,false,0.406762,-0.591187,0.280396,0.637512,0.999039,0.106447,-0.154299,-29.567619,-49.882239,18.656208
1783977948.7373,14:25:48.737,29,false,0.406766,-0.591125,0.280518,0.637512,0.993668,0.104982,-0.134279,-29.676395,-49.813829,18.659818
1783977948.7686,14:25:48.768,30,false,0.40654,-0.591187,0.280579,0.637573,0.991714,0.108888,-0.152834,-29.789247,-49.916752,18.722881
1783977948.8,14:25:48.800,31,false,0.406756,-0.591003,0.281067,0.63739,0.988785,0.111818,-0.133791,-29.950629,-49.814983,18.749731
1783977948.8313,14:25:48.831,0,false,0.40676,-0.590942,0.281189,0.63739,0.994644,0.113283,-0.142092,-30.021103,-49.753299,18.639311
1783977948.8627,14:25:48.862,1,false,0.407059,-0.590759,0.281555,0.637207,0.996597,0.116701,-0.148928,-29.905085,-49.907136,18.554887
1783977948.894,14:25:48.894,2,false,0.40668,-0.590881,0.281433,0.63739,0.990249,0.102052,-0.156741,-29.890391,-49.881098,18.568629
1783977948.9254,14:25:48.925,3,false,0.406633,-0.590942,0.281372,0.63739,0.995132,0.104494,-0.14844,-29.907074,-49.872618,18.566042
1783977948.9567,14:25:48.956,4,false,0.406352,-0.591187,0.281128,0.637451,0.989273,0.111818,-0.145022,-29.862273,-49.879939,18.548761
1783977948.9878,14:25:48.987,5,false,0.406018,-0.591248,0.281067,0.637634,0.985855,0.109377,-0.137209,-29.687368,-49.796805,18.503299
1783977949.019,14:25:49.019,6,false,0.405679,-0.59137,0.280884,0.637817,1.006363,0.119142,-0.144533,-29.799122,-49.871523,18.432476
1783977949.0503,14:25:49.050,7,false,0.405536,-0.591431,0.280823,0.637878,0.995132,0.116701,-0.142092,-29.899702,-49.908861,18.473413
1783977949.0815,14:25:49.081,8,false,0.405147,-0.591492,0.280701,0.638123,0.997086,0.117678,-0.148928,-29.945361,-49.942466,18.510256
1783977949.1126,14:25:49.112,9,false,0.405163,-0.591431,0.280945,0.638062,0.997574,0.121584,-0.14844,-30.031316,-49.927849,18.513506
1783977949.1439,14:25:49.143,10,false,0.405121,-0.591431,0.281006,0.638062,0.991226,0.104005,-0.139162,-30.183445,-49.884785,18.591201
1783977949.1753,14:25:49.175,11,false,0.404982,-0.591431,0.281067,0.638123,1.004898,0.11133,-0.145022,-30.200731,-49.846028,18.691034
1783977949.2066,14:25:49.206,12,false,0.404855,-0.591431,0.28125,0.638123,0.991714,0.107424,-0.144533,-30.216287,-49.885916,18.676207
1783977949.238,14:25:49.238,13,false,0.404616,-0.591492,0.281189,0.638245,1.007828,0.113283,-0.132815,-30.125612,-49.951723,18.588094
1783977949.2693,14:25:49.269,14,false,0.404515,-0.591553,0.281067,0.638306,0.993668,0.123049,-0.141115,-30.193542,-49.93618,18.478884
1783977949.3004,14:25:49.300,15,false,0.404179,-0.591614,0.281006,0.638489,0.99855,0.109865,-0.136233,-30.150002,-49.80256,18.470318
1783977949.3316,14:25:49.331,16,false,0.403742,-0.591736,0.280823,0.638733,0.999527,0.116701,-0.135744,-30.021093,-49.727164,18.50747
1783977949.3627,14:25:49.362,17,false,0.403448,-0.591797,0.280701,0.638916,0.995621,0.102052,-0.137697,-29.964891,-49.674262,18.600723
1783977949.3939,14:25:49.393,18,false,0.40325,-0.591858,0.280579,0.639038,0.986343,0.102541,-0.147951,-29.914308,-49.74628,18.579973
1783977949.425,14:25:49.425,19,false,0.403351,-0.591797,0.280701,0.638977,1.013687,0.116701,-0.157229,-29.85383,-49.751281,18.60616
1783977949.4561,14:25:49.456,20,false,0.403132,-0.592041,0.28064,0.638916,0.99855,0.117189,-0.134279,-29.87417,-49.755782,18.59982
1783977949.4873,14:25:49.487,21,false,0.402752,-0.592102,0.28064,0.639099,0.991226,0.110842,-0.133303,-29.982198,-49.67011,18.534299
1783977949.5184,14:25:49.518,22,false,0.402371,-0.592163,0.28064,0.639282,0.988785,0.102052,-0.138186,-29.9897,-49.787405,18.460376
1783977949.5498,14:25:49.549,23,false,0.402045,-0.592224,0.280701,0.639404,0.982437,0.101076,-0.142092,-30.086175,-49.848109,18.453661
1783977949.5811,14:25:49.581,24,false,0.401307,-0.592407,0.280396,0.639832,0.996109,0.10547,-0.14844,-30.053372,-49.857881,18.447617
1783977949.6124,14:25:49.612,25,false,0.401464,-0.592346,0.280579,0.639709,0.989761,0.115724,-0.12842,-29.978988,-49.896584,18.561809
1783977949.6438,14:25:49.643,26,false,0.401663,-0.592285,0.280701,0.639587,0.988296,0.102541,-0.139162,-30.016719,-49.886555,18.515043
1783977949.6749,14:25:49.674,27,false,0.401554,-0.592285,0.280579,0.639709,1.000015,0.10547,-0.143557,-30.020769,-49.847621,18.472953
1783977949.7061,14:25:49.706,28,false,0.401864,-0.592285,0.280273,0.639648,0.994644,0.104982,-0.140627,-30.054322,-49.767719,18.479934
1783977949.7372,14:25:49.737,29,false,0.402149,-0.592224,0.280273,0.639526,0.999527,0.112795,-0.146487,-29.979843,-49.815438,18.441356
1783977949.7685,14:25:49.768,30,false,0.402234,-0.592224,0.280151,0.639526,0.997086,0.108888,-0.14551,-29.838042,-49.858385,18.451497
1783977949.7997,14:25:49.799,31,false,0.401698,-0.592468,0.279846,0.639771,1.005386,0.108888,-0.14258,-29.85996,-49.852175,18.490531
1783977949.8308,14:25:49.830,0,false,0.401536,-0.59259,0.279541,0.639893,0.997086,0.114748,-0.150881,-29.954455,-49.951264,18.495754
1783977949.862,14:25:49.862,1,false,0.401565,-0.592529,0.279907,0.639771,0.990738,0.108888,-0.141604,-30.054455,-50.02549,18.485501
1783977949.8933,14:25:49.893,2,false,0.401178,-0.592651,0.279785,0.639954,0.989761,0.104982,-0.133303,-30.084639,-50.00257,18.311781
1783977949.9246,14:25:49.924,3,false,0.401123,-0.592651,0.279724,0.640015,0.996109,0.106447,-0.136233,-30.141713,-49.966988,18.275064
1783977949.956,14:25:49.956,4,false,0.401211,-0.592468,0.279846,0.640076,0.979995,0.112795,-0.143557,-30.103356,-49.964873,18.316788
1783977949.9873,14:25:49.987,5,false,0.401024,-0.592529,0.279846,0.640137,0.996109,0.103517,-0.135744,-30.188466,-49.933061,18.354339
1783977950.0187,14:25:50.018,6,false,0.401167,-0.592346,0.280029,0.640137,1.001968,0.106447,-0.14844,-30.13048,-49.844615,18.32832
1783977950.0498,14:25:50.049,7,false,0.401209,-0.592346,0.279968,0.640137,1.000015,0.099123,-0.144533,-29.973615,-50.019228,18.379672
1783977950.0809,14:25:50.080,8,false,0.401473,-0.592163,0.280396,0.639954,0.990249,0.1084,-0.143557,-29.937115,-50.101612,18.530566
1783977950.1121,14:25:50.112,9,false,0.401444,-0.592224,0.280029,0.640076,1.006363,0.115724,-0.142092,-29.88931,-50.160803,18.54674
1783977950.1432,14:25:50.143,10,false,0.401624,-0.592102,0.280029,0.640076,0.983413,0.099123,-0.142092,-29.906101,-50.124352,18.546342
1783977950.1744,14:25:50.174,11,false,0.401827,-0.591919,0.279846,0.640198,1.009293,0.113283,-0.150881,-29.951121,-50.091546,18.501123
1783977950.2055,14:25:50.205,12,false,0.401932,-0.59198,0.279846,0.640076,1.014664,0.112795,-0.150881,-30.066408,-50.211559,18.430517
1783977950.2366,14:25:50.236,13,false,0.401786,-0.592285,0.279968,0.639832,0.995621,0.104982,-0.141604,-30.125304,-50.155078,18.426788
1783977950.2678,14:25:50.267,14,false,0.401508,-0.592407,0.279968,0.639893,1.010758,0.100099,-0.136233,-30.088588,-50.208923,18.483247
1783977950.2991,14:25:50.299,15,false,0.401523,-0.592224,0.280334,0.639893,0.991714,0.1084,-0.14258,-30.160221,-50.272337,18.384522
1783977950.3305,14:25:50.330,16,false,0.401582,-0.592163,0.280518,0.639832,1.00734,0.093263,-0.141115,-30.090106,-50.239686,18.4153
1783977950.3618,14:25:50.361,17,false,0.40168,-0.592163,0.280518,0.639771,0.982925,0.10547,-0.148928,-30.086817,-50.240208,18.457954
1783977950.3932,14:25:50.393,18,false,0.401518,-0.592285,0.280212,0.639893,0.997574,0.103517,-0.138186,-30.05395,-50.40517,18.227173
1783977950.4245,14:25:50.424,19,false,0.401639,-0.592224,0.280029,0.639954,0.993179,0.105959,-0.150393,-29.994462,-50.404098,18.124148
1783977950.4558,14:25:50.455,20,false,0.401469,-0.592285,0.279724,0.640137,1.009293,0.119142,-0.146975,-30.030645,-50.492856,18.121148
1783977950.487,14:25:50.487,21,false,0.401429,-0.592407,0.279663,0.640076,1.003433,0.108888,-0.123537,-30.093118,-50.483015,18.103494
1783977950.5181,14:25:50.518,22,false,0.401404,-0.592346,0.279968,0.640015,1.010269,0.108888,-0.144045,-30.164298,-50.563881,18.22219
1783977950.5493,14:25:50.549,23,false,0.401162,-0.592407,0.279907,0.640137,0.997086,0.099611,-0.14258,-30.123682,-50.621706,18.164524
1783977950.5804,14:25:50.580,24,false,0.401209,-0.592346,0.279968,0.640137,1.002945,0.118166,-0.150393,-30.266575,-50.539165,18.307025
1783977950.6115,14:25:50.611,25,false,0.401366,-0.592285,0.280151,0.640015,0.990249,0.113283,-0.135744,-30.17087,-50.509739,18.360507
1783977950.6427,14:25:50.642,26,false,0.401226,-0.592285,0.280212,0.640076,1.013687,0.099611,-0.153811,-30.114644,-50.543071,18.274056
1783977950.674,14:25:50.674,27,false,0.401286,-0.592224,0.280396,0.640015,1.005386,0.105959,-0.147463,-30.138809,-50.513255,18.330834
1783977950.7054,14:25:50.705,28,false,0.400899,-0.592346,0.280273,0.640198,1.005386,0.10547,-0.133303,-30.20542,-50.336882,18.277258
1783977950.7367,14:25:50.736,29,false,0.401001,-0.592285,0.280396,0.640137,0.993179,0.106935,-0.145998,-30.145738,-50.432361,18.333716
1783977950.768,14:25:50.768,30,false,0.40077,-0.592346,0.280457,0.640198,1.00734,0.107424,-0.144045,-30.22661,-50.458477,18.399482
1783977950.7994,14:25:50.799,31,false,0.400618,-0.592346,0.280396,0.64032,0.995621,0.103029,-0.152834,-30.134902,-50.467028,18.339041
1783977950.8307,14:25:50.830,0,false,0.400618,-0.592346,0.280396,0.64032,1.002945,0.105959,-0.147951,-30.261718,-50.414908,18.404275
1783977950.8621,14:25:50.862,1,false,0.400073,-0.592529,0.28009,0.640625,1.004898,0.115236,-0.142092,-30.316038,-50.457724,18.448031
1783977950.8932,14:25:50.893,2,false,0.400065,-0.592468,0.28009,0.640686,0.98732,0.112306,-0.144045,-30.30511,-50.406534,18.547228
1783977950.9243,14:25:50.924,3,false,0.399877,-0.592529,0.28009,0.640747,1.002945,0.112795,-0.139162,-30.100875,-50.285695,18.486966
1783977950.9555,14:25:50.955,4,false,0.399879,-0.592651,0.279968,0.640686,0.991226,0.1084,-0.148928,-30.111463,-50.29657,18.477592
1783977950.9866,14:25:50.986,5,false,0.399596,-0.592834,0.279846,0.640747,0.997086,0.111818,-0.138674,-30.210716,-50.246542,18.40934
1783977951.0178,14:25:51.017,6,false,0.399352,-0.592896,0.279785,0.640869,0.992203,0.113283,-0.145022,-30.135551,-50.186563,18.332959
1783977951.0491,14:25:51.049,7,false,0.399017,-0.593018,0.279724,0.640991,0.990249,0.108888,-0.142092,-30.127718,-50.252213,18.309078
1783977951.0804,14:25:51.080,8,false,0.398829,-0.593079,0.279724,0.641052,0.984878,0.11426,-0.142092,-30.001038,-50.311298,18.362354
1783977951.1118,14:25:51.111,9,false,0.398871,-0.593079,0.279663,0.641052,0.993668,0.107424,-0.149416,-29.901979,-50.244843,18.32058
1783977951.1431,14:25:51.143,10,false,0.398829,-0.593079,0.279724,0.641052,0.985367,0.119631,-0.136721,-29.857688,-50.289711,18.357752
1783977951.1745,14:25:51.174,11,false,0.398675,-0.593079,0.279663,0.641174,0.997086,0.104494,-0.145022,-29.982318,-50.389908,18.226715
1783977951.2056,14:25:51.205,12,false,0.39837,-0.593201,0.279419,0.641357,1.002457,0.111818,-0.14258,-30.124393,-50.270731,18.243366
1783977951.2367,14:25:51.236,13,false,0.398082,-0.593262,0.279419,0.641479,0.994156,0.096193,-0.133791,-30.207399,-50.208333,18.183582
1783977951.2679,14:25:51.267,14,false,0.39788,-0.593323,0.279297,0.641602,1.00148,0.110353,-0.136233,-30.252197,-50.182083,18.159685
1783977951.299,14:25:51.299,15,false,0.397819,-0.593384,0.279114,0.641663,1.007828,0.108888,-0.140627,-30.262607,-50.113596,18.153131
1783977951.3302,14:25:51.330,16,false,0.39763,-0.593445,0.279114,0.641724,0.98732,0.122072,-0.147951,-30.242068,-50.126727,18.147233
1783977951.3613,14:25:51.361,17,false,0.397526,-0.593506,0.278992,0.641785,1.004898,0.112306,-0.144533,-30.253491,-50.063776,18.186786
1783977951.3924,14:25:51.392,18,false,0.397652,-0.593384,0.278931,0.641846,1.008804,0.095216,-0.144045,-30.248818,-50.276289,18.20743
1783977951.4238,14:25:51.423,19,false,0.397584,-0.593384,0.278748,0.641968,1.00441,0.103517,-0.139651,-30.199751,-50.138566,18.255917
1783977951.4551,14:25:51.455,20,false,0.398004,-0.59314,0.278809,0.641907,0.991714,0.106935,-0.140139,-30.15559,-50.164154,18.374325
1783977951.4865,14:25:51.486,21,false,0.398156,-0.593018,0.278992,0.641846,0.988785,0.11426,-0.144045,-30.310245,-50.187183,18.510799
1783977951.5178,14:25:51.517,22,false,0.398161,-0.592957,0.279114,0.641846,0.995621,0.1084,-0.134768,-30.284943,-50.252771,18.469134
1783977951.5489,14:25:51.548,23,false,0.39805,-0.592957,0.278992,0.641968,0.999039,0.111818,-0.14258,-30.426663,-50.296846,18.521359
1783977951.5801,14:25:51.580,24,false,0.398007,-0.592957,0.279053,0.641968,0.993179,0.117189,-0.150393,-30.404673,-50.336514,18.388915
1783977951.6112,14:25:51.611,25,false,0.398361,-0.592773,0.279358,0.641785,0.986831,0.107424,-0.146487,-30.459651,-50.342307,18.494023
1783977951.6424,14:25:51.642,26,false,0.397914,-0.592896,0.279175,0.642029,1.007828,0.112306,-0.141115,-30.434362,-50.497059,18.409174
1783977951.6735,14:25:51.673,27,false,0.398285,-0.592712,0.279175,0.641968,1.021012,0.12256,-0.143069,-30.351786,-50.65129,18.45244
1783977951.7046,14:25:51.704,28,false,0.398272,-0.592712,0.279053,0.642029,0.999039,0.117189,-0.141604,-30.142883,-50.730283,18.446519
1783977951.7358,14:25:51.735,29,false,0.39829,-0.592651,0.279297,0.641968,1.006851,0.104494,-0.149416,-30.089456,-50.741561,18.411282
1783977951.7671,14:25:51.767,30,false,0.398088,-0.592712,0.279175,0.64209,0.997086,0.104982,-0.144045,-30.011463,-50.542357,18.42443
1783977951.7985,14:25:51.798,31,false,0.397793,-0.592712,0.279175,0.642273,0.997086,0.097658,-0.146975,-30.075854,-50.632243,18.451217
1783977951.8298,14:25:51.829,0,false,0.39775,-0.592712,0.279236,0.642273,1.00148,0.111818,-0.140139,-30.073991,-50.653324,18.385602
1783977951.8612,14:25:51.861,1,false,0.397798,-0.592651,0.279297,0.642273,1.002457,0.110353,-0.146975,-30.072314,-50.747067,18.401319
1783977951.8925,14:25:51.892,2,false,0.398013,-0.59259,0.279541,0.64209,0.999527,0.098634,-0.143069,-30.205389,-50.786574,18.460325
1783977951.9238,14:25:51.923,3,false,0.397907,-0.592529,0.279541,0.642212,1.008316,0.11133,-0.147463,-30.250388,-50.747361,18.408753
1783977951.955,14:25:51.955,4,false,0.397692,-0.59259,0.279297,0.642395,0.983413,0.120607,-0.149905,-30.126394,-50.786839,18.362339
1783977951.9861,14:25:51.986,5,false,0.397654,-0.592529,0.27948,0.642395,1.003922,0.107912,-0.151369,-30.2092,-50.7476,18.425243
1783977952.0173,14:25:52.017,6,false,0.397752,-0.592529,0.27948,0.642334,0.997574,0.095705,-0.147951,-30.268771,-50.697331,18.466903
1783977952.0484,14:25:52.048,7,false,0.397444,-0.592529,0.279358,0.642578,1.001968,0.115724,-0.146487,-30.352293,-50.652088,18.653935
1783977952.0795,14:25:52.079,8,false,0.397548,-0.592468,0.27948,0.642517,0.997086,0.097658,-0.144045,-30.382601,-50.551555,18.583002
1783977952.1107,14:25:52.110,9,false,0.397305,-0.592651,0.279297,0.642578,0.996109,0.12256,-0.14844,-30.424833,-50.52089,18.504209
1783977952.1418,14:25:52.141,10,false,0.39736,-0.592651,0.279358,0.642517,1.000015,0.115236,-0.140627,-30.388072,-50.553107,18.358526
1783977952.1732,14:25:52.173,11,false,0.397348,-0.592651,0.279236,0.642578,0.991226,0.115724,-0.148928,-30.44471,-50.462472,18.541442
1783977952.2045,14:25:52.204,12,false,0.397319,-0.592529,0.279114,0.642761,1.008316,0.113771,-0.141604,-30.465776,-50.306131,18.451851
1783977952.2358,14:25:52.235,13,false,0.397479,-0.592468,0.279297,0.642639,0.988296,0.118166,-0.135744,-30.395013,-50.34487,18.580573
1783977952.2672,14:25:52.267,14,false,0.397319,-0.592529,0.279114,0.642761,0.999039,0.102541,-0.147463,-30.391141,-50.334874,18.427254
1783977952.2985,14:25:52.298,15,false,0.397213,-0.592468,0.279114,0.642883,1.002457,0.106935,-0.152834,-30.312888,-50.430554,18.364036
1783977952.3299,14:25:52.329,16,false,0.397218,-0.592407,0.279236,0.642883,0.997574,0.096681,-0.145022,-30.287321,-50.33722,18.381908
1783977952.3612,14:25:52.361,17,false,0.397728,-0.592102,0.279297,0.642822,0.984878,0.124025,-0.154788,-30.279265,-50.268173,18.308271
1783977952.3923,14:25:52.392,18,false,0.397814,-0.592102,0.279175,0.642822,1.01857,0.112795,-0.151858,-30.361738,-50.295754,18.436397
1783977952.4235,14:25:52.423,19,false,0.397614,-0.592285,0.278931,0.642883,0.994156,0.103517,-0.151369,-30.301378,-50.335531,18.43208
1783977952.4546,14:25:52.454,20,false,0.397571,-0.592285,0.278992,0.642883,0.995621,0.109377,-0.149416,-30.202193,-50.431146,18.443148
1783977952.4858,14:25:52.485,21,false,0.39727,-0.592346,0.27887,0.643066,1.000504,0.108888,-0.141115,-30.142835,-50.36766,18.348433
1783977952.5169,14:25:52.516,22,false,0.397115,-0.592346,0.278809,0.643188,0.996109,0.117189,-0.145998,-30.134273,-50.4152,18.367866
1783977952.5482,14:25:52.548,23,false,0.397219,-0.592285,0.278931,0.643127,0.996597,0.110353,-0.147951,-29.902261,-50.457987,18.51994
1783977952.5796,14:25:52.579,24,false,0.397513,-0.592163,0.279053,0.643005,1.002945,0.111818,-0.136233,-29.947664,-50.436679,18.596992
1783977952.6109,14:25:52.610,25,false,0.397414,-0.592163,0.279053,0.643066,0.975601,0.104005,-0.149416,-29.95862,-50.522178,18.546707
1783977952.6423,14:25:52.642,26,false,0.397457,-0.592163,0.278992,0.643066,1.005386,0.11133,-0.150393,-29.848849,-50.419682,18.546313
1783977952.6736,14:25:52.673,27,false,0.397703,-0.592102,0.279053,0.642944,0.990249,0.113771,-0.14551,-29.88464,-50.521835,18.531004
1783977952.7047,14:25:52.704,28,false,0.397697,-0.592163,0.278931,0.642944,0.998062,0.105959,-0.142092,-30.036483,-50.539004,18.517226
1783977952.7359,14:25:52.735,29,false,0.397793,-0.592041,0.279053,0.642944,0.993668,0.111818,-0.159182,-29.993695,-50.614271,18.594549
1783977952.767,14:25:52.767,30,false,0.397988,-0.591919,0.279175,0.642883,1.008804,0.112795,-0.145022,-30.059863,-50.517519,18.529555
1783977952.7982,14:25:52.798,31,false,0.398036,-0.591858,0.279236,0.642883,0.99855,0.114748,-0.14551,-30.059599,-50.445397,18.560784
1783977952.8293,14:25:52.829,0,false,0.398031,-0.591919,0.279114,0.642883,0.995621,0.118654,-0.151858,-30.2089,-50.350579,18.633751
1783977952.8604,14:25:52.860,1,false,0.397988,-0.591919,0.279175,0.642883,1.00148,0.097169,-0.134768,-30.253547,-50.354965,18.669514
1783977952.8916,14:25:52.891,2,false,0.39819,-0.591858,0.279297,0.642761,0.989273,0.123049,-0.143069,-30.174099,-50.388821,18.567116
1783977952.9227,14:25:52.922,3,false,0.398135,-0.591858,0.279236,0.642822,1.009293,0.117678,-0.141604,-30.11755,-50.37443,18.519819
1783977952.9541,14:25:52.954,4,false,0.397836,-0.592041,0.278992,0.642944,1.000992,0.104982,-0.138186,-30.111517,-50.361477,18.477252
1783977952.9854,14:25:52.985,5,false,0.397676,-0.592102,0.278809,0.643066,0.992203,0.11133,-0.14844,-30.106088,-50.34982,18.409034
1783977953.0167,14:25:53.016,6,false,0.397474,-0.592163,0.278687,0.643188,1.005875,0.107424,-0.146487,-30.071293,-50.354283,18.542037
1783977953.0481,14:25:53.048,7,false,0.397626,-0.592041,0.27887,0.643127,0.98732,0.109865,-0.154788,-30.099794,-50.373253,18.54211
1783977953.0794,14:25:53.079,8,false,0.397348,-0.592163,0.278442,0.643372,0.987808,0.122072,-0.133303,-30.065629,-50.40528,18.407591
1783977953.1108,14:25:53.110,9,false,0.39712,-0.592468,0.278259,0.643311,0.994644,0.11426,-0.135744,-30.124603,-50.434104,18.436062
1783977953.1419,14:25:53.141,10,false,0.396818,-0.592651,0.278442,0.64325,0.986343,0.104494,-0.144533,-30.222542,-50.415185,18.371963
1783977953.173,14:25:53.173,11,false,0.396569,-0.59259,0.278503,0.643433,0.99855,0.117678,-0.133791,-30.131241,-50.278526,18.344181
1783977953.2042,14:25:53.204,12,false,0.396304,-0.592712,0.278198,0.643616,1.003433,0.121096,-0.151369,-30.078977,-50.275164,18.36404
1783977953.2353,14:25:53.235,13,false,0.396199,-0.592773,0.278076,0.643677,0.999527,0.118654,-0.156741,-30.136617,-50.212323,18.471635
1783977953.2665,14:25:53.266,14,false,0.395847,-0.592896,0.277893,0.64386,1.008316,0.1084,-0.145998,-30.188493,-50.080997,18.493702
1783977953.2978,14:25:53.297,15,false,0.39589,-0.592896,0.277832,0.64386,0.998062,0.121096,-0.141115,-30.280043,-50.022619,18.498608
1783977953.3292,14:25:53.329,16,false,0.395791,-0.592896,0.277832,0.643921,0.986831,0.119142,-0.14258,-30.347484,-49.940171,18.517977
1783977953.3605,14:25:53.360,17,false,0.395968,-0.592834,0.27771,0.643921,0.989761,0.118166,-0.144045,-30.40818,-49.83606,18.610179
1783977953.3918,14:25:53.391,18,false,0.396016,-0.592773,0.277771,0.643921,0.987808,0.107912,-0.143557,-30.268408,-49.772268,18.76793
1783977953.4232,14:25:53.423,19,false,0.396234,-0.592712,0.278015,0.643738,0.995621,0.112795,-0.14551,-30.322058,-49.998978,18.640736
1783977953.4545,14:25:53.454,20,false,0.396177,-0.592712,0.277954,0.643799,0.994644,0.115236,-0.149416,-30.310528,-49.888986,18.496354
1783977953.4859,14:25:53.485,21,false,0.396164,-0.592712,0.277832,0.64386,0.995132,0.113771,-0.144045,-30.225382,-49.789994,18.545857
1783977953.517,14:25:53.517,22,false,0.396634,-0.592529,0.278259,0.643555,0.999039,0.12549,-0.141115,-30.22352,-49.955116,18.665178
1783977953.5481,14:25:53.548,23,false,0.396438,-0.592651,0.278137,0.643616,1.000992,0.11133,-0.137209,-30.132121,-49.834557,18.652937
1783977953.5793,14:25:53.579,24,false,0.396282,-0.592651,0.278076,0.643738,0.990738,0.101564,-0.157717,-30.019954,-49.890545,18.582104
1783977953.6104,14:25:53.610,25,false,0.396282,-0.592651,0.278076,0.643738,0.981949,0.110842,-0.143069,-30.113404,-49.940935,18.623031
1783977953.6416,14:25:53.641,26,false,0.396583,-0.592468,0.27832,0.643616,0.99855,0.112306,-0.134768,-30.167601,-49.941425,18.659866
1783977953.6727,14:25:53.672,27,false,0.39654,-0.592468,0.278381,0.643616,0.99855,0.112795,-0.147951,-30.186471,-49.926912,18.648156
1783977953.704,14:25:53.704,28,false,0.396476,-0.592407,0.27832,0.643738,0.994644,0.114748,-0.141115,-30.233361,-49.928804,18.577801
1783977953.7354,14:25:53.735,29,false,0.39635,-0.592407,0.278076,0.643921,0.996597,0.112795,-0.161135,-30.140978,-50.094999,18.469621
1783977953.7667,14:25:53.766,30,false,0.396089,-0.592468,0.277893,0.644104,0.979995,0.101564,-0.147951,-30.192418,-50.22962,18.312443
1783977953.7981,14:25:53.798,31,false,0.396033,-0.592468,0.277832,0.644165,0.993668,0.112795,-0.156252,-30.104129,-50.186287,18.365382
1783977953.8292,14:25:53.829,0,false,0.396027,-0.592529,0.27771,0.644165,1.007828,0.114748,-0.161135,-30.024669,-50.296826,18.203674
1783977953.8605,14:25:53.860,1,false,0.395237,-0.592896,0.277771,0.644287,1.001968,0.118166,-0.141115,-30.177463,-50.35145,18.162814
1783977953.8917,14:25:53.891,2,false,0.395038,-0.592896,0.277771,0.644409,1.011246,0.108888,-0.145022,-30.120577,-50.295934,18.305486
1783977953.9228,14:25:53.922,3,false,0.394733,-0.592957,0.277649,0.644592,0.993179,0.111818,-0.140139,-30.144149,-50.290831,18.329214
1783977953.954,14:25:53.954,4,false,0.394677,-0.592957,0.277588,0.644653,0.992691,0.104982,-0.149416,-30.240133,-50.21147,18.350569
1783977953.9851,14:25:53.985,5,false,0.394677,-0.592957,0.277588,0.644653,1.00441,0.120607,-0.140139,-30.326519,-50.244721,18.369788
1783977954.0162,14:25:54.016,6,false,0.394614,-0.593018,0.277405,0.644714,0.98732,0.117678,-0.145998,-30.359404,-50.259694,18.372132
1783977954.0474,14:25:54.047,7,false,0.394371,-0.593018,0.277466,0.644836,0.979019,0.1084,-0.14258,-30.284325,-50.258215,18.419103
1783977954.0787,14:25:54.078,8,false,0.394315,-0.593018,0.277405,0.644897,0.995132,0.116213,-0.140627,-30.141984,-50.256884,18.461376
1783977954.1101,14:25:54.110,9,false,0.394009,-0.593079,0.277283,0.645081,0.994644,0.109865,-0.148928,-30.058738,-50.180917,18.364838
1783977954.1414,14:25:54.141,10,false,0.393952,-0.593079,0.277222,0.645142,1.000992,0.101076,-0.150393,-30.133356,-50.247132,18.277954
1783977954.1727,14:25:54.172,11,false,0.393789,-0.59314,0.277039,0.645264,0.993179,0.107424,-0.146487,-30.140696,-50.112325,18.289481
1783977954.2041,14:25:54.204,12,false,0.393427,-0.593323,0.276733,0.645447,0.996597,0.109377,-0.141115,-30.087487,-50.23026,18.344717
1783977954.2354,14:25:54.235,13,false,0.393335,-0.593384,0.276733,0.645447,0.980484,0.104494,-0.146487,-30.174184,-50.276586,18.409383
1783977954.2666,14:25:54.266,14,false,0.393292,-0.593384,0.276794,0.645447,0.992203,0.110842,-0.133791,-30.162487,-50.273418,18.37786
1783977954.2977,14:25:54.297,15,false,0.393301,-0.593445,0.276794,0.645386,0.992203,0.106447,-0.138674,-30.181868,-50.450013,18.39435
1783977954.3288,14:25:54.328,16,false,0.393258,-0.593445,0.276855,0.645386,0.995132,0.108888,-0.132326,-30.184358,-50.444456,18.528822
1783977954.36,14:25:54.360,17,false,0.393307,-0.593384,0.276917,0.645386,0.995621,0.118654,-0.145998,-30.126782,-50.424502,18.560124
1783977954.3911,14:25:54.391,18,false,0.392844,-0.593567,0.276611,0.64563,0.995132,0.115236,-0.149905,-30.284319,-50.346727,18.319126
1783977954.4223,14:25:54.422,19,false,0.392656,-0.593445,0.276855,0.645752,1.016129,0.125978,-0.141115,-30.321424,-50.426268,18.206905
1783977954.4536,14:25:54.453,20,false,0.39235,-0.593201,0.277527,0.645874,0.987808,0.110842,-0.158694,-30.235189,-50.303455,18.285353
1783977954.4849,14:25:54.484,21,false,0.392107,-0.592896,0.277954,0.646118,0.996597,0.115236,-0.14551,-30.022992,-50.477046,18.341002
1783977954.5163,14:25:54.516,22,false,0.391877,-0.59259,0.278503,0.646301,1.002945,0.109377,-0.149416,-29.951646,-50.558509,18.465855
1783977954.5476,14:25:54.547,23,false,0.391064,-0.592773,0.279114,0.646362,0.995132,0.103029,-0.143069,-29.902388,-50.64678,18.458592
1783977954.579,14:25:54.579,24,false,0.390957,-0.592651,0.279663,0.646301,0.993668,0.083009,-0.153323,-29.947779,-50.741177,18.467009
1783977954.6101,14:25:54.610,25,false,0.390998,-0.592529,0.279724,0.646362,0.993668,0.09424,-0.138674,-29.854046,-50.811181,18.489538
1783977954.6413,14:25:54.641,26,false,0.390703,-0.59259,0.279724,0.646484,0.995621,0.095705,-0.147463,-29.889318,-50.694738,18.405138
1783977954.6724,14:25:54.672,27,false,0.390796,-0.592529,0.279724,0.646484,1.007828,0.100587,-0.144045,-29.846293,-50.694617,18.284316
1783977954.7035,14:25:54.703,28,false,0.390899,-0.592529,0.279297,0.646606,0.997574,0.107424,-0.144533,-29.792616,-50.679553,18.235391
1783977954.7347,14:25:54.734,29,false,0.390656,-0.592529,0.278931,0.646912,0.991714,0.105959,-0.147463,-29.848984,-50.591227,18.11659
