Timestamp,Local time,Counter,Interpolated,Accelerometer X,Accelerometer Y,Accelerometer Z,Magnetometer X,Magnetometer Y,Magnetometer Z,Quaternion 0,Quaternion 1,Quaternion 2,Quaternion 3
1785343611.0576,09:46:51.057,23,false,0.610941,-0.342468,0.580872,0.414795,1.014664,-0.048829,-0.098146,-25.722973,-50.553697,21.151103
1785343611.0889,09:46:51.088,24,false,0.609831,-0.342285,0.58197,0.415039,0.994644,-0.074708,-0.083986,-25.513382,-50.582633,21.249161
1785343611.1202,09:46:51.120,25,false,0.609207,-0.342285,0.582581,0.4151,1.014176,-0.053223,-0.076661,-25.47429,-50.548861,21.292552
1785343611.1516,09:46:51.151,26,false,0.608512,-0.342407,0.583191,0.415161,1.006363,-0.070802,-0.085451,-25.573691,-50.682958,21.31665
1785343611.1829,09:46:51.182,27,false,0.607695,-0.342834,0.583618,0.415405,1.001968,-0.058595,-0.06836,-25.588382,-50.684014,21.30843
1785343611.2143,09:46:51.214,28,false,0.607553,-0.342773,0.583801,0.415405,1.00441,-0.083497,-0.059571,-25.631512,-50.804596,21.33094
1785343611.2456,09:46:51.245,29,false,0.607296,-0.34198,0.584534,0.415405,0.998062,-0.075196,-0.073243,-25.625468,-50.778534,21.411015
1785343611.277,09:46:51.277,30,false,0.60724,-0.341797,0.584656,0.415466,0.993179,-0.083009,-0.0542,-25.649936,-50.68031,21.333544
1785343611.3083,09:46:51.308,31,false,0.607517,-0.340881,0.585205,0.415039,1.019059,-0.072267,-0.071778,-25.686911,-50.756401,21.278773
1785343611.3397,09:46:51.339,0,false,0.607533,-0.34021,0.585449,0.415222,0.99855,-0.085451,-0.076661,-25.645419,-50.750113,21.349111
1785343611.371,09:46:51.371,1,false,0.607832,-0.338745,0.585815,0.415466,0.986831,-0.073732,-0.084962,-25.578168,-50.714546,21.337645
1785343611.4021,09:46:51.402,2,false,0.608148,-0.337891,0.585938,0.415527,0.997086,-0.072755,-0.091798,-25.457828,-50.772259,21.521726
1785343611.4333,09:46:51.433,3,false,0.608394,-0.337341,0.585999,0.415527,1.00148,-0.083986,-0.091798,-25.514013,-50.809247,21.492999
1785343611.4644,09:46:51.464,4,false,0.608405,-0.337158,0.585876,0.415833,1.005386,-0.083009,-0.094728,-25.519719,-50.782721,21.556867
1785343611.4956,09:46:51.495,5,false,0.608212,-0.33728,0.585876,0.416016,1.016129,-0.086915,-0.094728,-25.450085,-50.788755,21.644257
1785343611.5267,09:46:51.526,6,false,0.607925,-0.337524,0.586121,0.415894,1.010269,-0.073732,-0.089357,-25.492091,-50.868955,21.618231
1785343611.5578,09:46:51.557,7,false,0.607558,-0.338013,0.586609,0.415344,1.000504,-0.089845,-0.072267,-25.470081,-50.926181,21.534991
1785343611.589,09:46:51.589,8,false,0.607075,-0.338501,0.586914,0.415222,1.006363,-0.085939,-0.076173,-25.659626,-50.887961,21.519892
1785343611.6201,09:46:51.620,9,false,0.606759,-0.338501,0.587585,0.414734,0.991226,-0.066407,-0.062501,-25.576001,-50.883471,21.476394
1785343611.6512,09:46:51.651,10,false,0.606581,-0.338806,0.587463,0.414917,1.000015,-0.075685,-0.080079,-25.5456,-50.864476,21.302662
1785343611.6824,09:46:51.682,11,false,0.606606,-0.338867,0.587402,0.414917,1.002945,-0.088869,-0.062013,-25.578055,-50.72775,21.310795
1785343611.7135,09:46:51.713,12,false,0.606703,-0.338806,0.587036,0.415344,0.997574,-0.085451,-0.075196,-25.547448,-50.61965,21.258299
1785343611.7449,09:46:51.744,13,false,0.606832,-0.338562,0.586914,0.415527,0.995621,-0.078126,-0.078126,-25.564764,-50.746668,21.285823
1785343611.7762,09:46:51.776,14,false,0.607187,-0.338379,0.586609,0.415588,1.000992,-0.078614,-0.069825,-25.670072,-50.756308,21.220871
1785343611.8075,09:46:51.807,15,false,0.607322,-0.338318,0.586548,0.415527,1.014664,-0.08838,-0.084474,-25.585402,-50.809844,21.311952
1785343611.8389,09:46:51.838,16,false,0.608061,-0.337708,0.586609,0.414856,1.024918,-0.079591,-0.080568,-25.613876,-50.783258,21.468695
1785343611.8702,09:46:51.870,17,false,0.608479,-0.337341,0.586731,0.414368,0.999039,-0.072267,-0.083009,-25.639503,-50.789239,21.310686
1785343611.9016,09:46:51.901,18,false,0.608716,-0.337463,0.586975,0.413574,1.016617,-0.065431,-0.065919,-25.602752,-50.749759,21.303063
1785343611.9329,09:46:51.932,19,false,0.608569,-0.338196,0.586792,0.413452,1.002945,-0.062013,-0.062501,-25.749122,-50.87872,21.161618
1785343611.9643,09:46:51.964,20,false,0.608474,-0.338684,0.586609,0.413452,1.009781,-0.075196,-0.072755,-25.776179,-51.0546,21.273578
1785343611.9956,09:46:51.995,21,false,0.608591,-0.338928,0.586304,0.413513,0.993668,-0.078614,-0.073732,-25.935114,-51.033446,21.28462
1785343612.027,09:46:52.027,22,false,0.608818,-0.338806,0.586182,0.413452,0.992203,-0.087892,-0.063966,-25.853848,-51.089177,21.369326
1785343612.0583,09:46:52.058,23,false,0.609345,-0.338379,0.586182,0.413025,1.020035,-0.0542,-0.07715,-25.765754,-51.169242,21.490424
1785343612.0896,09:46:52.089,24,false,0.609921,-0.33783,0.586243,0.412537,0.988296,-0.061524,-0.083986,-25.791147,-51.091763,21.419965
1785343612.1208,09:46:52.120,25,false,0.610089,-0.337708,0.586182,0.412476,1.002945,-0.053223,-0.087892,-25.799047,-50.962216,21.311691
1785343612.1519,09:46:52.151,26,false,0.610235,-0.337219,0.586182,0.412659,1.00441,-0.05713,-0.09131,-25.955695,-50.920393,21.393691
1785343612.1831,09:46:52.183,27,false,0.610179,-0.337097,0.586182,0.412842,1.00441,-0.07422,-0.101564,-25.992002,-50.807982,21.362813
1785343612.2144,09:46:52.214,28,false,0.610026,-0.336731,0.586121,0.413452,0.996597,-0.089845,-0.081544,-25.979816,-50.781583,21.335024
1785343612.2455,09:46:52.245,29,false,0.609903,-0.336548,0.586182,0.413696,1.021012,-0.089357,-0.082521,-25.879126,-50.817638,21.175428
1785343612.2769,09:46:52.276,30,false,0.609804,-0.336609,0.586121,0.413879,1.005875,-0.073732,-0.099611,-25.788505,-50.850088,21.211239
1785343612.3082,09:46:52.308,31,false,0.609803,-0.336548,0.586243,0.413757,1.008316,-0.072755,-0.088869,-25.736854,-50.804524,21.21356
1785343612.3394,09:46:52.339,0,false,0.609702,-0.336487,0.586426,0.413696,1.003922,-0.072755,-0.086427,-25.675414,-50.748562,21.200696
1785343612.3705,09:46:52.370,1,false,0.609358,-0.336609,0.58667,0.413757,0.991714,-0.072267,-0.073243,-25.694887,-50.758012,21.293795
1785343612.4017,09:46:52.401,2,false,0.609266,-0.33667,0.586731,0.413757,0.996597,-0.062989,-0.070314,-25.787182,-50.841286,21.272907
1785343612.4328,09:46:52.432,3,false,0.608906,-0.337158,0.586609,0.414063,1.013687,-0.078614,-0.075196,-25.780525,-51.050817,21.269062
1785343612.4639,09:46:52.463,4,false,0.608656,-0.337341,0.586548,0.414368,1.019059,-0.065919,-0.075685,-25.789487,-50.925365,21.355324
1785343612.4951,09:46:52.495,5,false,0.608573,-0.337341,0.586548,0.41449,1.019547,-0.081056,-0.073732,-25.662968,-50.902181,21.268468
1785343612.5262,09:46:52.526,6,false,0.608264,-0.337341,0.586609,0.414856,1.004898,-0.086427,-0.076173,-25.62387,-50.851407,21.339836
1785343612.5575,09:46:52.557,7,false,0.607865,-0.337036,0.586853,0.415344,1.004898,-0.097658,-0.07422,-25.633544,-50.76085,21.149852
1785343612.5889,09:46:52.588,8,false,0.607774,-0.336304,0.58728,0.415466,1.009781,-0.078614,-0.079591,-25.702066,-50.634486,21.248035
1785343612.6202,09:46:52.620,9,false,0.607541,-0.335632,0.587646,0.415833,1.010269,-0.079591,-0.071778,-25.70392,-50.715159,21.276585
1785343612.6516,09:46:52.651,10,false,0.607256,-0.335449,0.58783,0.416138,1.002945,-0.086915,-0.073732,-25.705589,-50.712995,21.272372
1785343612.6829,09:46:52.682,11,false,0.607188,-0.335327,0.588013,0.416077,1.017594,-0.082521,-0.079103,-25.766906,-50.800771,21.253626
1785343612.7143,09:46:52.714,12,false,0.607053,-0.335388,0.588074,0.416138,0.996597,-0.082521,-0.080568,-25.717415,-50.685369,21.206848
1785343612.7456,09:46:52.745,13,false,0.606726,-0.335205,0.588257,0.416504,0.997574,-0.084474,-0.072267,-25.628011,-50.746,21.119885
1785343612.777,09:46:52.777,14,false,0.6065,-0.335144,0.588135,0.417053,1.002457,-0.09424,-0.078126,-25.562501,-50.785614,21.086481
1785343612.8083,09:46:52.808,15,false,0.606089,-0.334961,0.588013,0.417969,1.003922,-0.101564,-0.077638,-25.458681,-50.896035,21.056417
1785343612.8396,09:46:52.839,16,false,0.605929,-0.334839,0.588074,0.418213,1.015152,-0.102052,-0.084962,-25.574597,-51.010369,21.014405
1785343612.871,09:46:52.871,17,false,0.605945,-0.334351,0.588379,0.418152,1.008316,-0.099123,-0.075196,-25.454613,-51.038499,21.126133
1785343612.9021,09:46:52.902,18,false,0.606234,-0.333069,0.589111,0.417725,1.009293,-0.1084,-0.075685,-25.421397,-51.063817,21.07715
1785343612.9333,09:46:52.933,19,false,0.606529,-0.332092,0.589661,0.417297,1.017594,-0.095705,-0.087404,-25.466272,-51.011834,21.212511
1785343612.9644,09:46:52.964,20,false,0.606404,-0.331421,0.59021,0.417236,1.000015,-0.095216,-0.072267,-25.521613,-51.129541,21.244613
1785343612.9955,09:46:52.995,21,false,0.606394,-0.330505,0.59082,0.417114,1.000015,-0.102541,-0.083986,-25.616282,-51.310247,21.273505
1785343613.0267,09:46:53.026,22,false,0.60638,-0.330139,0.591125,0.416992,1.003922,-0.100587,-0.077638,-25.566899,-51.413067,21.254646
1785343613.0578,09:46:53.057,23,false,0.606642,-0.329346,0.591858,0.416199,1.011246,-0.102052,-0.083986,-25.492547,-51.430835,21.417119
1785343613.089,09:46:53.089,24,false,0.607028,-0.328186,0.592834,0.415161,0.994156,-0.110353,-0.085451,-25.395722,-51.431873,21.398853
1785343613.1201,09:46:53.120,25,false,0.60722,-0.326965,0.593994,0.414185,1.000015,-0.110353,-0.075685,-25.428211,-51.507577,21.412321
1785343613.1514,09:46:53.151,26,false,0.607888,-0.325378,0.595581,0.41217,0.984878,-0.083497,-0.068849,-25.487358,-51.426171,21.499211
1785343613.1826,09:46:53.182,27,false,0.608127,-0.325256,0.595825,0.41156,0.993668,-0.083009,-0.070802,-25.510683,-51.472537,21.547505
1785343613.2137,09:46:53.213,28,false,0.608346,-0.326111,0.595093,0.411621,1.002945,-0.081544,-0.080079,-25.546629,-51.454451,21.605923
1785343613.2449,09:46:53.244,29,false,0.608282,-0.326477,0.594788,0.411865,1.0215,-0.093263,-0.06836,-25.638796,-51.497989,21.673453
1785343613.2762,09:46:53.276,30,false,0.608066,-0.327698,0.593872,0.412537,1.004898,-0.090822,-0.078126,-25.781562,-51.477358,21.674415
1785343613.3075,09:46:53.307,31,false,0.607797,-0.32843,0.593445,0.412964,1.004898,-0.098146,-0.074708,-25.700697,-51.653189,21.660326
1785343613.3389,09:46:53.338,0,false,0.607419,-0.329407,0.593079,0.413269,1.002945,-0.104005,-0.076661,-25.568104,-51.572177,21.812139
1785343613.3702,09:46:53.370,1,false,0.607422,-0.329773,0.592957,0.413147,1.002945,-0.101076,-0.079591,-25.598308,-51.544127,21.739417
1785343613.4016,09:46:53.401,2,false,0.607492,-0.330017,0.592834,0.413025,1.000504,-0.089357,-0.073732,-25.625492,-51.548789,21.883321
1785343613.4329,09:46:53.432,3,false,0.607585,-0.330688,0.592407,0.412964,0.999039,-0.072267,-0.079103,-25.575188,-51.627755,21.833388
1785343613.4643,09:46:53.464,4,false,0.607435,-0.331238,0.592041,0.413269,0.999527,-0.081544,-0.06836,-25.649545,-51.594147,21.758541
1785343613.4956,09:46:53.495,5,false,0.60724,-0.331543,0.591858,0.413574,0.99855,-0.095216,-0.073243,-25.761328,-51.698484,21.73604
1785343613.5269,09:46:53.526,6,false,0.607125,-0.331665,0.591736,0.413818,1.000015,-0.096193,-0.065431,-25.757256,-51.672757,21.790558
1785343613.5583,09:46:53.558,7,false,0.607191,-0.33136,0.591797,0.413879,1.002945,-0.081056,-0.067384,-25.70873,-51.619695,21.839625
1785343613.5896,09:46:53.589,8,false,0.607448,-0.330627,0.591858,0.414001,0.999527,-0.097169,-0.072267,-25.694964,-51.69157,21.764154
1785343613.621,09:46:53.621,9,false,0.60749,-0.330505,0.591797,0.414124,1.00148,-0.090333,-0.07715,-25.697528,-51.591766,21.711184
1785343613.6521,09:46:53.652,10,false,0.607714,-0.330322,0.59137,0.414551,1.00734,-0.082033,-0.088869,-25.580205,-51.65148,21.693419
1785343613.6832,09:46:53.683,11,false,0.607676,-0.330139,0.591125,0.4151,1.001968,-0.093751,-0.075685,-25.609199,-51.570638,21.812015
1785343613.7144,09:46:53.714,12,false,0.607808,-0.329468,0.591064,0.415527,1.002457,-0.097169,-0.094728,-25.635294,-51.49788,21.873889
1785343613.7455,09:46:53.745,13,false,0.60787,-0.329285,0.590759,0.416016,0.982925,-0.106935,-0.089845,-25.658779,-51.432398,21.8249
1785343613.7767,09:46:53.776,14,false,0.607905,-0.329285,0.590637,0.416138,0.999527,-0.098146,-0.086427,-25.515424,-51.508049,21.870532
1785343613.8078,09:46:53.807,15,false,0.608264,-0.328918,0.590515,0.416077,1.005875,-0.107424,-0.085939,-25.550896,-51.486412,21.926555
1785343613.8389,09:46:53.838,16,false,0.608446,-0.328735,0.590515,0.415955,1.010269,-0.091798,-0.09131,-25.552913,-51.541707,21.902207
1785343613.8701,09:46:53.870,17,false,0.608833,-0.328308,0.590698,0.415466,0.995621,-0.092775,-0.085939,-25.584636,-51.546612,21.925155
1785343613.9012,09:46:53.901,18,false,0.608754,-0.328552,0.590515,0.415649,1.011734,-0.089357,-0.08838,-25.598233,-51.610841,21.885992
1785343613.9323,09:46:53.932,19,false,0.608795,-0.328552,0.590515,0.415588,0.989761,-0.090333,-0.088869,-25.535702,-51.63874,21.895608
1785343613.9635,09:46:53.963,20,false,0.608756,-0.328613,0.590393,0.415771,0.999527,-0.090822,-0.080079,-25.434561,-51.693757,21.934169
1785343613.9946,09:46:53.994,21,false,0.608718,-0.328857,0.59021,0.415894,1.000992,-0.092775,-0.092775,-25.418305,-51.743272,21.864198
1785343614.0258,09:46:54.025,22,false,0.608775,-0.328796,0.590271,0.415771,1.000992,-0.092287,-0.077638,-25.358812,-51.802789,21.890947
1785343614.0571,09:46:54.057,23,false,0.608579,-0.329224,0.590149,0.415894,1.003922,-0.093751,-0.083009,-25.305268,-51.931124,21.944928
1785343614.0884,09:46:54.088,24,false,0.608513,-0.329346,0.590149,0.415894,1.001968,-0.082521,-0.083009,-25.227171,-51.882133,21.978558
1785343614.1198,09:46:54.119,25,false,0.6086,-0.32959,0.589966,0.415833,0.99855,-0.083497,-0.069337,-25.2167,-51.897857,21.844332
1785343614.1511,09:46:54.151,26,false,0.608489,-0.329956,0.589661,0.416138,0.993668,-0.090333,-0.090822,-25.252137,-51.912008,21.588944
1785343614.1825,09:46:54.182,27,false,0.608868,-0.330627,0.588806,0.41626,1.006851,-0.075685,-0.090822,-25.388707,-51.849975,21.673126
1785343614.2138,09:46:54.213,28,false,0.608942,-0.331238,0.588257,0.416443,1.014176,-0.083009,-0.084474,-25.526574,-51.85396,21.524582
1785343614.2451,09:46:54.245,29,false,0.608998,-0.331726,0.587708,0.416748,1.014176,-0.089357,-0.092775,-25.575885,-51.857547,21.600246
1785343614.2765,09:46:54.276,30,false,0.608931,-0.331665,0.587769,0.416809,1.00734,-0.098146,-0.090333,-25.620265,-51.890683,21.638436
1785343614.3078,09:46:54.307,31,false,0.60891,-0.331238,0.588074,0.416748,1.00148,-0.090333,-0.098634,-25.630299,-51.920505,21.672807
1785343614.3392,09:46:54.339,0,false,0.608856,-0.330872,0.588379,0.416687,1.001968,-0.093263,-0.09131,-25.594468,-51.842669,21.628972
1785343614.3705,09:46:54.370,1,false,0.608813,-0.330811,0.588501,0.416626,1.000015,-0.083986,-0.082033,-25.562221,-51.922154,21.619428
1785343614.4019,09:46:54.401,2,false,0.608831,-0.330933,0.588501,0.416504,1.001968,-0.082521,-0.087892,-25.682736,-51.87406,21.715515
1785343614.433,09:46:54.433,3,false,0.609001,-0.33136,0.588257,0.41626,0.99855,-0.087404,-0.082033,-25.626708,-51.890591,21.757132
1785343614.4641,09:46:54.464,4,false,0.608845,-0.331665,0.588074,0.416504,1.00734,-0.093751,-0.086427,-25.636098,-51.965284,21.734772
1785343614.4953,09:46:54.495,5,false,0.608803,-0.331787,0.588135,0.416382,1.007828,-0.103029,-0.093263,-25.629595,-51.972692,21.669787
1785343614.5264,09:46:54.526,6,false,0.608976,-0.331604,0.588318,0.416016,0.998062,-0.091798,-0.090822,-25.698512,-51.934498,21.715977
1785343614.5576,09:46:54.557,7,false,0.609291,-0.331421,0.58844,0.415527,1.010758,-0.085939,-0.089357,-25.610998,-51.900124,21.712686
1785343614.5887,09:46:54.588,8,false,0.609967,-0.33075,0.588806,0.414551,0.999527,-0.080568,-0.084962,-25.636913,-51.839279,21.679817
1785343614.6198,09:46:54.619,9,false,0.610272,-0.330505,0.588928,0.414124,1.00441,-0.074708,-0.080079,-25.705098,-51.934057,21.620327
1785343614.651,09:46:54.651,10,false,0.610424,-0.330505,0.588684,0.414246,1.011734,-0.086915,-0.084474,-25.721602,-51.899727,21.521924
1785343614.6821,09:46:54.682,11,false,0.61049,-0.330383,0.588684,0.414246,0.99855,-0.07715,-0.087892,-25.796272,-51.928645,21.567946
1785343614.7133,09:46:54.713,12,false,0.610669,-0.330322,0.588318,0.414551,0.987808,-0.082521,-0.084474,-25.654121,-51.894856,21.549551
1785343614.7444,09:46:54.744,13,false,0.610888,-0.3302,0.588074,0.414673,1.002945,-0.089357,-0.093263,-25.615908,-51.969122,21.547949
1785343614.7755,09:46:54.775,14,false,0.610888,-0.3302,0.588074,0.414673,1.020035,-0.081056,-0.092287,-25.581517,-51.916332,21.591369
1785343614.8069,09:46:54.806,15,false,0.610723,-0.330383,0.588013,0.414856,1.002457,-0.087404,-0.084474,-25.655241,-52.003404,21.540724
1785343614.8382,09:46:54.838,16,false,0.610676,-0.330566,0.58783,0.415039,1.009781,-0.079591,-0.08838,-25.601962,-52.111678,21.674589
1785343614.8695,09:46:54.869,17,false,0.610515,-0.332642,0.586609,0.415344,0.997086,-0.008789,-0.076661,-25.539058,-52.119401,21.660483
1785343614.9009,09:46:54.900,18,false,0.61013,-0.337219,0.583435,0.416687,0.994644,-0.009766,-0.082521,-25.617028,-52.111397,21.782373
1785343614.9322,09:46:54.932,19,false,0.609027,-0.343628,0.578552,0.419861,0.998062,-0.046876,-0.101076,-25.657294,-51.894841,21.622904
1785343614.9636,09:46:54.963,20,false,0.606994,-0.355042,0.56958,0.425537,1.012222,-0.043946,-0.104494,-25.738394,-51.670032,21.479382
1785343614.9949,09:46:54.994,21,false,0.60517,-0.362671,0.56366,0.429565,1.026383,-0.062989,-0.107912,-25.796431,-51.45275,21.395074
1785343615.0263,09:46:55.026,22,false,0.60277,-0.371826,0.556335,0.434631,1.018082,-0.068849,-0.119142,-25.803802,-51.287104,21.244428
1785343615.0576,09:46:55.057,23,false,0.60211,-0.374756,0.554077,0.435913,1.019547,-0.076661,-0.125978,-25.675852,-50.943623,21.093892
1785343615.0887,09:46:55.088,24,false,0.600679,-0.382385,0.54895,0.437744,1.014176,-0.061036,-0.115724,-25.590605,-50.544767,21.048133
1785343615.1201,09:46:55.120,25,false,0.600637,-0.386658,0.546631,0.436951,1.006851,-0.045411,-0.104982,-25.513882,-50.111027,21.051811
1785343615.1512,09:46:55.151,26,false,0.600837,-0.393005,0.543579,0.434814,1.016129,-0.024414,-0.101076,-25.474739,-49.750569,20.830814
1785343615.1824,09:46:55.182,27,false,0.601268,-0.398254,0.541565,0.431946,1.012711,-0.018555,-0.104005,-25.484372,-49.32148,20.811363
1785343615.2135,09:46:55.213,28,false,0.601608,-0.399658,0.541077,0.430786,0.999039,0.005371,-0.087404,-25.44818,-48.860531,20.659272
1785343615.2448,09:46:55.244,29,false,0.60236,-0.404053,0.539734,0.427307,1.005875,0.014649,-0.080079,-25.505331,-48.490538,20.567252
1785343615.276,09:46:55.276,30,false,0.602995,-0.406372,0.539307,0.424744,1.000992,0.020996,-0.081544,-25.556766,-48.02296,20.454526
1785343615.3071,09:46:55.307,31,false,0.604811,-0.408203,0.539429,0.420227,1.009293,0.034668,-0.065919,-25.647919,-47.52737,20.532519
1785343615.3383,09:46:55.338,0,false,0.60607,-0.408875,0.539734,0.417358,1.006851,0.039551,-0.080568,-25.670142,-47.096293,20.617666
1785343615.3694,09:46:55.369,1,false,0.607272,-0.408813,0.540405,0.414795,1.012222,0.051759,-0.064454,-25.615373,-46.678416,20.61953
1785343615.4005,09:46:55.400,2,false,0.608874,-0.407898,0.541626,0.411743,0.992691,0.055665,-0.081544,-25.700666,-46.347189,20.501576
1785343615.4317,09:46:55.431,3,false,0.609784,-0.40741,0.542358,0.409912,1.005386,0.06006,-0.081544,-25.687706,-46.064038,20.485141
1785343615.4628,09:46:55.462,4,false,0.610496,-0.40686,0.543396,0.40802,1.021012,0.059083,-0.075196,-25.825581,-45.809202,20.365673
1785343615.494,09:46:55.494,5,false,0.611503,-0.405579,0.54541,0.40509,1.008316,0.046387,-0.083497,-25.844991,-45.415357,20.452551
1785343615.5251,09:46:55.525,6,false,0.612508,-0.404602,0.546814,0.402649,0.993668,0.062501,-0.06836,-25.922276,-45.016036,20.620464
1785343615.5564,09:46:55.556,7,false,0.613995,-0.403442,0.548462,0.399292,1.00148,0.062989,-0.06836,-25.857247,-44.746369,20.816448
1785343615.5878,09:46:55.587,8,false,0.614543,-0.403015,0.548828,0.398376,1.005386,0.054688,-0.062501,-25.873491,-44.578439,20.70871
1785343615.6191,09:46:55.619,9,false,0.615984,-0.401794,0.550049,0.395691,1.023941,0.062013,-0.082521,-25.918018,-44.517024,20.880915
1785343615.6505,09:46:55.650,10,false,0.616865,-0.400879,0.551086,0.393799,1.011734,0.059571,-0.083009,-25.883323,-44.491659,20.856454
1785343615.6818,09:46:55.681,11,false,0.617539,-0.399902,0.552734,0.391418,1.015152,0.05127,-0.070802,-25.941821,-44.229569,21.028839
1785343615.7132,09:46:55.713,12,false,0.618427,-0.398926,0.553955,0.389282,1.010758,0.056153,-0.061524,-25.919699,-43.96378,21.124169
1785343615.7445,09:46:55.744,13,false,0.61911,-0.398315,0.554871,0.387512,1.009293,0.065431,-0.045899,-25.974559,-43.829246,21.030521
1785343615.7758,09:46:55.775,14,false,0.62022,-0.397522,0.555603,0.385498,0.999039,0.053712,-0.062501,-25.874395,-43.633397,21.125684
1785343615.8072,09:46:55.807,15,false,0.621296,-0.396484,0.55603,0.384216,1.000992,0.051759,-0.062013,-25.888924,-43.457133,21.091699
1785343615.8385,09:46:55.838,16,false,0.622396,-0.395569,0.556335,0.382935,1.001968,0.048829,-0.05127,-25.737508,-43.283542,21.195698
1785343615.8699,09:46:55.869,17,false,0.623851,-0.39447,0.556702,0.381165,1.017594,0.063966,-0.073243,-25.735818,-43.142263,21.274343
1785343615.9012,09:46:55.901,18,false,0.624875,-0.393799,0.556946,0.379822,1.011734,0.070802,-0.060548,-25.809066,-42.985205,21.270354
1785343615.9324,09:46:55.932,19,false,0.626306,-0.392273,0.557495,0.378235,1.010269,0.063478,-0.064454,-25.889943,-42.828898,21.356487
1785343615.9635,09:46:55.963,20,false,0.62685,-0.391296,0.557983,0.377625,1.00734,0.053223,-0.064942,-25.962732,-42.867669,21.389145
1785343615.9946,09:46:55.994,21,false,0.627428,-0.390381,0.558594,0.376709,1.002945,0.05713,-0.074708,-25.93852,-42.767977,21.403584
1785343616.0258,09:46:56.025,22,false,0.628125,-0.389709,0.559265,0.375244,1.013199,0.076661,-0.071778,-25.946636,-42.723117,21.281994
1785343616.0569,09:46:56.056,23,false,0.628571,-0.389404,0.559753,0.374084,1.001968,0.067872,-0.066407,-26.013757,-42.593019,21.262286
1785343616.088,09:46:56.088,24,false,0.629318,-0.389221,0.560181,0.372375,1.004898,0.062989,-0.061036,-25.93958,-42.595562,21.184734
1785343616.1192,09:46:56.119,25,false,0.629533,-0.389282,0.560181,0.371948,1.005386,0.075685,-0.062989,-26.02236,-42.448312,21.189706
1785343616.1503,09:46:56.150,26,false,0.630546,-0.389038,0.560303,0.3703,1.012222,0.07129,-0.062013,-25.947323,-42.360649,21.298858
1785343616.1815,09:46:56.181,27,false,0.631234,-0.388733,0.560425,0.369263,1.010758,0.071778,-0.063966,-26.029328,-42.356521,21.397095
1785343616.2126,09:46:56.212,28,false,0.632161,-0.388733,0.560303,0.367859,1.015152,0.076661,-0.080079,-25.953595,-42.278037,21.380831
1785343616.2437,09:46:56.243,29,false,0.632672,-0.388855,0.560242,0.366943,1.011246,0.079103,-0.082033,-26.005065,-42.28217,21.47087
1785343616.2749,09:46:56.274,30,false,0.63338,-0.388733,0.560364,0.365662,1.013687,0.085451,-0.073732,-25.976619,-42.211121,21.551905
1785343616.306,09:46:56.306,31,false,0.634171,-0.388489,0.560791,0.363892,1.028824,0.086915,-0.069337,-26.100557,-42.251854,21.550068
1785343616.3373,09:46:56.337,0,false,0.634362,-0.388184,0.56134,0.363037,1.012222,0.085939,-0.066407,-26.122377,-42.094114,21.563368
1785343616.3687,09:46:56.368,1,false,0.634204,-0.388123,0.562073,0.362244,0.983413,0.086915,-0.052735,-26.022385,-42.056824,21.694969
1785343616.4,09:46:56.400,2,false,0.633976,-0.388,0.563354,0.360779,0.973648,0.080079,-0.056153,-25.992207,-41.963448,21.753595
1785343616.4314,09:46:56.431,3,false,0.634052,-0.388245,0.563843,0.359619,0.975113,0.080568,-0.051759,-26.129539,-41.834548,21.821311
1785343616.4627,09:46:56.462,4,false,0.634356,-0.388916,0.564087,0.357971,1.007828,0.083986,-0.044434,-26.088646,-41.733492,21.717764
1785343616.4941,09:46:56.494,5,false,0.634467,-0.38916,0.564026,0.357605,1.009781,0.11133,-0.048341,-25.932211,-41.642541,21.624572
1785343616.5254,09:46:56.525,6,false,0.634916,-0.388916,0.563843,0.357361,1.009293,0.09424,-0.056153,-26.000774,-41.545732,21.600514
1785343616.5567,09:46:56.556,7,false,0.63534,-0.388306,0.563477,0.357849,1.000015,0.095705,-0.075196,-26.06248,-41.563281,21.578862
1785343616.5881,09:46:56.588,8,false,0.636054,-0.38678,0.563293,0.358521,1.010758,0.08838,-0.076173,-26.043247,-41.504305,21.664052
1785343616.6192,09:46:56.619,9,false,0.636436,-0.385559,0.56366,0.358582,0.999039,0.082033,-0.081544,-26.040891,-41.54095,21.755677
1785343616.6506,09:46:56.650,10,false,0.636565,-0.385193,0.563843,0.358459,1.019059,0.065431,-0.076661,-26.083632,-41.499162,21.778324
1785343616.6819,09:46:56.681,11,false,0.636803,-0.384521,0.564148,0.358276,1.015152,0.081056,-0.07715,-26.062283,-41.41669,21.664121
1785343616.713,09:46:56.713,12,false,0.636944,-0.383789,0.564758,0.357849,1.018082,0.089357,-0.079591,-26.102885,-41.432189,21.725832
1785343616.7442,09:46:56.744,13,false,0.637206,-0.382629,0.565674,0.357178,1.019547,0.09131,-0.069337,-26.124472,-41.386323,21.766417
1785343616.7753,09:46:56.775,14,false,0.6373,-0.382263,0.566162,0.356628,1.005875,0.079103,-0.070802,-26.069132,-41.419812,21.802944
1785343616.8065,09:46:56.806,15,false,0.637104,-0.382446,0.566528,0.356201,1.008316,0.075685,-0.062501,-26.124002,-41.420045,21.761049
1785343616.8376,09:46:56.837,16,false,0.636903,-0.383179,0.566833,0.355286,1.0215,0.084474,-0.051759,-26.098617,-41.495024,21.798112
1785343616.8687,09:46:56.868,17,false,0.636697,-0.38385,0.566956,0.354736,1.002457,0.083009,-0.051759,-26.210354,-41.532597,21.846424
1785343616.8999,09:46:56.899,18,false,0.636602,-0.384277,0.567078,0.354248,1.00441,0.094728,-0.057618,-26.146426,-41.267336,21.650642
1785343616.931,09:46:56.931,19,false,0.636418,-0.384705,0.567261,0.353821,0.997086,0.086427,-0.056153,-26.163659,-41.237955,21.623977
1785343616.9622,09:46:56.962,20,false,0.636421,-0.384644,0.567566,0.353394,0.994156,0.089845,-0.050294,-26.059539,-41.211512,21.599979
1785343616.9933,09:46:56.993,21,false,0.636482,-0.384338,0.567932,0.353027,1.000015,0.088869,-0.055665,-26.085461,-41.232575,21.608288
1785343617.0244,09:46:57.024,22,false,0.636585,-0.384155,0.568054,0.352844,1.003922,0.080568,-0.05127,-25.959253,-41.131901,21.615766
1785343617.0556,09:46:57.055,23,false,0.636589,-0.384033,0.568359,0.352478,1.00441,0.090822,-0.047852,-25.965296,-41.205786,21.607543
1785343617.0869,09:46:57.086,24,false,0.636724,-0.383728,0.568604,0.352173,1.01564,0.090822,-0.05127,-25.940827,-41.317145,21.674911
1785343617.1182,09:46:57.118,25,false,0.636909,-0.383179,0.569031,0.351746,1.010269,0.089845,-0.056641,-25.933759,-41.252875,21.750496
1785343617.1496,09:46:57.149,26,false,0.637091,-0.382751,0.569153,0.351685,1.012711,0.083497,-0.063966,-25.852628,-41.22494,21.743753
1785343617.1809,09:46:57.180,27,false,0.636989,-0.382751,0.569153,0.351868,1.009781,0.084474,-0.061524,-25.929149,-41.274568,21.737685
1785343617.2123,09:46:57.212,28,false,0.637088,-0.382629,0.569275,0.351624,1.005875,0.082033,-0.05713,-26.04288,-41.244464,21.851854
1785343617.2436,09:46:57.243,29,false,0.637047,-0.382874,0.569458,0.351135,1.006851,0.083986,-0.0542,-26.085422,-41.172508,21.894791
1785343617.275,09:46:57.275,30,false,0.637111,-0.383118,0.569824,0.350159,1.000504,0.078614,-0.057618,-26.033986,-41.15261,21.918481
1785343617.3063,09:46:57.306,31,false,0.637191,-0.383179,0.570068,0.349548,0.992691,0.096193,-0.05713,-26.077418,-41.044979,21.879986
1785343617.3376,09:46:57.337,0,false,0.637188,-0.383301,0.570251,0.349121,1.022965,0.089357,-0.044923,-25.952014,-41.037833,22.009833
1785343617.369,09:46:57.369,1,false,0.637414,-0.382935,0.570618,0.348511,1.003922,0.091798,-0.036622,-25.884011,-41.016449,22.036972
1785343617.4003,09:46:57.400,2,false,0.637359,-0.383118,0.570557,0.348511,1.004898,0.093751,-0.044923,-25.927486,-41.057018,21.971674
1785343617.4317,09:46:57.431,3,false,0.637472,-0.382935,0.57074,0.348206,1.014664,0.090822,-0.041505,-26.041383,-41.048669,21.987675
1785343617.4628,09:46:57.462,4,false,0.637466,-0.382874,0.570862,0.348083,1.008316,0.097658,-0.050294,-25.934536,-40.996293,21.912353
1785343617.4941,09:46:57.494,5,false,0.637545,-0.382507,0.571167,0.347839,1.006851,0.099123,-0.055665,-25.898189,-40.964108,22.14364
1785343617.5253,09:46:57.525,6,false,0.637653,-0.382019,0.571411,0.347778,1.001968,0.083009,-0.051759,-25.910339,-41.054773,22.157398
1785343617.5564,09:46:57.556,7,false,0.637659,-0.381897,0.571411,0.3479,1.001968,0.093263,-0.053712,-25.951181,-40.971879,22.080058
1785343617.5876,09:46:57.587,8,false,0.637869,-0.381348,0.571655,0.347717,1.000992,0.085939,-0.048341,-26.062708,-40.942136,22.010451
1785343617.6187,09:46:57.618,9,false,0.637972,-0.381104,0.571777,0.347595,1.010269,0.096193,-0.053712,-25.983637,-40.855552,22.037529
1785343617.6498,09:46:57.649,10,false,0.638057,-0.380798,0.57196,0.347473,1.001968,0.072755,-0.062013,-26.106872,-40.957073,22.091806
1785343617.681,09:46:57.681,11,false,0.638065,-0.380676,0.572144,0.34729,1.007828,0.090333,-0.044923,-25.948615,-40.973672,22.215425
1785343617.7121,09:46:57.712,12,false,0.638086,-0.380493,0.572205,0.347351,1.008316,0.078614,-0.043946,-26.000583,-41.138149,22.251912
1785343617.7433,09:46:57.743,13,false,0.63824,-0.380127,0.572388,0.347168,1.002945,0.075196,-0.049317,-26.032401,-41.091779,22.269797
1785343617.7744,09:46:57.774,14,false,0.638322,-0.379822,0.572388,0.347351,1.00148,0.069825,-0.054688,-26.001222,-41.169677,22.121401
1785343617.8055,09:46:57.805,15,false,0.638383,-0.3797,0.572327,0.347473,1.012222,0.076173,-0.059571,-25.988114,-41.120154,22.077568
1785343617.8369,09:46:57.836,16,false,0.638572,-0.379272,0.57251,0.34729,1.009781,0.080568,-0.063478,-25.961363,-40.940999,22.068026
1785343617.8682,09:46:57.868,17,false,0.638458,-0.379333,0.572449,0.347534,1.010758,0.079591,-0.058106,-26.012057,-40.89939,21.939807
1785343617.8996,09:46:57.899,18,false,0.638249,-0.379517,0.572449,0.347717,1.00148,0.081544,-0.055177,-25.997866,-40.951665,21.914134
1785343617.9309,09:46:57.930,19,false,0.638235,-0.379578,0.572388,0.347778,1.014176,0.090333,-0.055177,-25.910325,-40.953851,21.78635
1785343617.9622,09:46:57.962,20,false,0.638279,-0.379395,0.572571,0.347595,1.009781,0.079591,-0.055665,-25.99603,-40.940865,21.80593
1785343617.9936,09:46:57.993,21,false,0.638429,-0.379089,0.572754,0.347351,1.014176,0.082521,-0.059571,-26.043257,-40.929177,21.748783
1785343618.0249,09:46:58.024,22,false,0.638539,-0.378906,0.572937,0.347046,1.002945,0.092775,-0.060548,-26.085761,-40.813981,21.802027
1785343618.0563,09:46:58.056,23,false,0.638619,-0.378662,0.57312,0.346863,0.992691,0.080079,-0.055177,-26.138969,-40.874797,21.790131
1785343618.0876,09:46:58.087,24,false,0.638612,-0.378601,0.573242,0.346741,1.000992,0.076661,-0.057618,-26.022363,-40.839808,21.83924
1785343618.119,09:46:58.119,25,false,0.638656,-0.378418,0.573425,0.346558,1.002457,0.083009,-0.053712,-26.052003,-40.778411,21.823623
1785343618.1501,09:46:58.150,26,false,0.638747,-0.378174,0.573669,0.346252,1.003433,0.080079,-0.05127,-26.00391,-40.842784,21.85443
1785343618.1814,09:46:58.181,27,false,0.638732,-0.378052,0.573914,0.346008,0.997086,0.087404,-0.047852,-25.990533,-40.975489,21.882155
1785343618.2126,09:46:58.212,28,false,0.638732,-0.378052,0.573914,0.346008,0.997574,0.080568,-0.039551,-26.03831,-40.885569,21.996831
1785343618.2437,09:46:58.243,29,false,0.638779,-0.377991,0.573975,0.345886,1.012222,0.087404,-0.05127,-26.036447,-41.103719,22.129947
1785343618.2749,09:46:58.274,30,false,0.639008,-0.377625,0.574219,0.345459,1.001968,0.087892,-0.053712,-26.094586,-40.986023,22.234798
1785343618.306,09:46:58.306,31,false,0.639124,-0.377502,0.57428,0.345276,1.024918,0.09424,-0.065431,-25.997373,-41.029634,22.179625
1785343618.3371,09:46:58.337,0,false,0.639019,-0.377625,0.57428,0.345337,1.010269,0.087892,-0.047852,-26.104281,-41.098793,22.204739
1785343618.3685,09:46:58.368,1,false,0.639036,-0.377502,0.574341,0.345337,1.006363,0.083986,-0.056153,-26.24536,-41.041405,22.212387
1785343618.3996,09:46:58.399,2,false,0.638996,-0.377197,0.574402,0.345642,0.993668,0.070314,-0.061524,-26.207838,-41.079478,22.234225
1785343618.4308,09:46:58.430,3,false,0.639562,-0.375977,0.574829,0.345215,1.011734,0.070802,-0.050782,-26.189023,-41.053929,22.268832
1785343618.4619,09:46:58.461,4,false,0.639659,-0.375793,0.574951,0.345032,1.005386,0.089845,-0.066407,-26.306674,-41.120658,22.210256
1785343618.493,09:46:58.493,5,false,0.639712,-0.37561,0.575195,0.344727,1.003922,0.089357,-0.047364,-26.307882,-41.076037,22.232307
1785343618.5242,09:46:58.524,6,false,0.639709,-0.375671,0.575195,0.344666,0.999527,0.085451,-0.041505,-26.428601,-41.020924,22.08766
1785343618.5553,09:46:58.555,7,false,0.639593,-0.375793,0.575134,0.344849,1.00148,0.076173,-0.049805,-26.342848,-41.135815,22.092063
1785343618.5866,09:46:58.586,8,false,0.639634,-0.375854,0.575012,0.34491,0.992691,0.083497,-0.052735,-26.26567,-41.239217,22.170794
1785343618.618,09:46:58.618,9,false,0.639906,-0.375671,0.574829,0.34491,1.001968,0.076173,-0.047364,-26.285933,-41.227602,22.316422
1785343618.6493,09:46:58.649,10,false,0.640682,-0.373596,0.575317,0.34491,0.982925,-0.054688,-0.075685,-26.214446,-41.127425,22.253086
1785343618.6807,09:46:58.680,11,false,0.64323,-0.368164,0.577576,0.342224,1.047379,-0.070802,-0.070802,-26.150109,-41.156896,22.270854
1785343618.712,09:46:58.712,12,false,0.650114,-0.353394,0.584961,0.332092,1.028824,-0.093751,-0.122072,-26.181928,-41.228282,22.167214
1785343618.7434,09:46:58.743,13,false,0.657264,-0.335571,0.593933,0.320374,1.063493,-0.111818,-0.156252,-26.210565,-41.337391,22.029077
1785343618.7747,09:46:58.774,14,false,0.665213,-0.312744,0.606201,0.30365,1.070817,-0.06006,-0.154299,-26.326061,-41.55522,22.069245
1785343618.806,09:46:58.806,15,false,0.675184,-0.280579,0.625061,0.273315,0.990249,0.398444,-0.025391,-26.415054,-42.035389,22.090443
1785343618.8374,09:46:58.837,16,false,0.677085,-0.270142,0.632874,0.260864,1.005875,0.517586,0.006836,-26.554963,-42.632033,22.094567
1785343618.8687,09:46:58.868,17,false,0.673562,-0.271484,0.635498,0.262207,0.948745,0.668956,0.06836,-26.576205,-43.258736,22.292679
1785343618.9001,09:46:58.900,18,false,0.659541,-0.304565,0.622253,0.291626,0.886244,0.443854,-0.03711,-26.580368,-43.628369,22.381257
1785343618.9314,09:46:58.931,19,false,0.645529,-0.339539,0.601379,0.326111,0.919448,0.314458,-0.083497,-26.853284,-43.961038,22.460976
1785343618.9626,09:46:58.962,20,false,0.622689,-0.381714,0.565857,0.382568,0.934096,0.011719,-0.221195,-26.75497,-43.856687,22.562632
1785343618.9937,09:46:58.993,21,false,0.617945,-0.387573,0.557129,0.396912,1.150896,-0.960464,-0.270024,-26.666488,-43.792678,22.519537
1785343619.0248,09:46:59.024,22,false,0.622973,-0.379395,0.554443,0.400696,1.100114,-0.621103,-0.227543,-26.5719,-43.720117,22.166721
1785343619.056,09:46:59.056,23,false,0.635959,-0.355896,0.569885,0.379639,1.06154,-0.535653,-0.231449,-26.441909,-43.535181,21.968818
1785343619.0871,09:46:59.087,24,false,0.659747,-0.307922,0.60144,0.328918,1.062516,0.053712,-0.226566,-26.534271,-43.652861,21.910335
1785343619.1182,09:46:59.118,25,false,0.665033,-0.289734,0.61853,0.302002,1.042985,0.854994,-0.123049,-26.482812,-44.027943,21.917517
1785343619.1494,09:46:59.149,26,false,0.659398,-0.293274,0.624817,0.297974,0.854505,0.800305,0.063966,-26.466407,-44.500101,22.073518
1785343619.1805,09:46:59.180,27,false,0.638256,-0.336304,0.608154,0.331177,0.882338,0.369146,-0.027832,-26.541366,-44.685782,22.124196
1785343619.2117,09:46:59.211,28,false,0.620829,-0.368347,0.586609,0.367126,0.802747,-0.024414,-0.075685,-26.593874,-44.71831,22.229622
1785343619.2428,09:46:59.242,29,false,0.610848,-0.383362,0.567383,0.397461,1.186053,-0.856458,-0.211429,-26.641132,-44.642908,22.354413
1785343619.2739,09:46:59.273,30,false,0.616851,-0.378479,0.562256,0.400146,1.063981,-0.672374,-0.168948,-26.578987,-44.515231,22.272325
1785343619.3051,09:46:59.305,31,false,0.630213,-0.361694,0.572449,0.379883,1.070329,-0.417487,-0.189456,-26.523057,-44.549861,22.093769
1785343619.3364,09:46:59.336,0,false,0.640431,-0.345276,0.592163,0.346375,1.156268,0.502449,-0.224613,-26.47272,-44.551119,21.962976
1785343619.3678,09:46:59.367,1,false,0.640542,-0.346924,0.595032,0.339539,0.836439,0.462409,0.043946,-26.487232,-44.597114,22.009754
1785343619.3991,09:46:59.399,2,false,0.634937,-0.366028,0.591248,0.336609,0.951186,0.374029,0.037598,-26.694692,-44.713278,22.156532
1785343619.4304,09:46:59.430,3,false,0.621518,-0.391968,0.577271,0.35614,0.946792,0.023438,-0.005371,-26.821591,-44.548656,22.198909
1785343619.4618,09:46:59.461,4,false,0.61418,-0.401001,0.56897,0.371826,0.994644,-0.186526,-0.035157,-26.890939,-44.280866,22.102463
1785343619.4931,09:46:59.493,5,false,0.612463,-0.401367,0.565063,0.380127,1.054215,-0.27393,-0.084474,-26.98326,-44.069763,22.060524
1785343619.5245,09:46:59.524,6,false,0.613798,-0.398926,0.56604,0.379089,1.016617,-0.106935,-0.059083,-26.946717,-43.834908,22.142409
1785343619.5558,09:46:59.555,7,false,0.620446,-0.390381,0.571655,0.368591,1.038102,0.125978,-0.048829,-26.824106,-43.608586,22.126383
1785343619.5872,09:46:59.587,8,false,0.623598,-0.387695,0.574951,0.360901,1.0215,0.214847,-0.042969,-26.773572,-43.539479,22.261498
1785343619.6185,09:46:59.618,9,false,0.623622,-0.391296,0.575378,0.356262,0.986343,0.2168,-0.004395,-26.877629,-43.537099,22.353194
1785343619.6498,09:46:59.649,10,false,0.621522,-0.395752,0.573425,0.358154,0.991226,0.121096,0.010254,-26.836696,-43.415327,22.24132
1785343619.6812,09:46:59.681,11,false,0.619333,-0.398621,0.57135,0.362061,1.009781,0.053223,-0.003906,-26.799857,-43.305731,22.275218
1785343619.7123,09:46:59.712,12,false,0.617925,-0.398438,0.569885,0.366943,1.013199,-0.043946,-0.020996,-26.84147,-43.057557,22.380495
1785343619.7435,09:46:59.743,13,false,0.619016,-0.39563,0.570618,0.367004,1.00148,-0.021973,-0.029786,-26.863968,-42.923923,22.460291
1785343619.7746,09:46:59.774,14,false,0.620901,-0.392822,0.571838,0.364929,1.019059,0.044923,-0.046387,-26.854309,-42.788698,22.517154
1785343619.8057,09:46:59.805,15,false,0.623326,-0.39093,0.572937,0.361084,1.024918,0.084962,-0.041016,-26.740939,-42.666997,22.598238
1785343619.8369,09:46:59.836,16,false,0.624378,-0.390503,0.573425,0.358948,1.017105,0.069825,-0.02002,-26.77349,-42.647188,22.731028
1785343619.868,09:46:59.868,17,false,0.625311,-0.390442,0.573669,0.356995,1.002945,0.075196,-0.025879,-26.802787,-42.405052,22.566417
1785343619.8992,09:46:59.899,18,false,0.625587,-0.390198,0.573914,0.356384,1.00441,0.0542,-0.028809,-26.769338,-42.217038,22.567806
1785343619.9303,09:46:59.930,19,false,0.626734,-0.388794,0.575012,0.354126,0.996597,0.074708,-0.013184,-26.828957,-42.212318,22.62887
1785343619.9614,09:46:59.961,20,false,0.627758,-0.387634,0.575989,0.35199,0.993668,0.092775,-0.02002,-26.882614,-42.163208,22.758598
1785343619.9926,09:46:59.992,21,false,0.628852,-0.387451,0.576294,0.349731,1.000992,0.098634,-0.019532,-26.930906,-42.044239,22.621138
1785343620.0237,09:47:00.023,22,false,0.62941,-0.387878,0.575989,0.348755,1.008804,0.102052,-0.021973,-27.01923,-41.937168,22.751638
1785343620.0548,09:47:00.054,23,false,0.62971,-0.388245,0.575562,0.348511,1.009781,0.106447,-0.033204,-27.113675,-41.721173,22.704597
1785343620.0862,09:47:00.086,24,false,0.630325,-0.388062,0.575012,0.348511,1.011734,0.079591,-0.045411,-27.079045,-41.601547,22.796844
1785343620.1175,09:47:00.117,25,false,0.63069,-0.387451,0.575134,0.348328,1.027848,0.062989,-0.042481,-27.017971,-41.523791,22.849959
1785343620.1489,09:47:00.148,26,false,0.631028,-0.386597,0.575745,0.347656,1.008316,0.066407,-0.040528,-26.873281,-41.468764,22.912716
1785343620.1802,09:47:00.180,27,false,0.631249,-0.386292,0.575928,0.34729,0.999039,0.070314,-0.034668,-26.683244,-41.479056,22.774798
1785343620.2115,09:47:00.211,28,false,0.631704,-0.386169,0.575806,0.346802,1.009293,0.081056,-0.039551,-26.66175,-41.592995,22.860025
1785343620.2429,09:47:00.242,29,false,0.63234,-0.385803,0.575684,0.346252,1.007828,0.078614,-0.046876,-26.597543,-41.590863,22.832053
1785343620.2742,09:47:00.274,30,false,0.632879,-0.385193,0.575684,0.345947,1.002457,0.086427,-0.03711,-26.734157,-41.544084,22.881647
1785343620.3056,09:47:00.305,31,false,0.633146,-0.384644,0.575867,0.345764,1.008804,0.084962,-0.037598,-26.797294,-41.412259,22.836558
1785343620.3369,09:47:00.336,0,false,0.632924,-0.384644,0.575928,0.346069,1.003433,0.079103,-0.041505,-26.794303,-41.458108,22.855794
1785343620.3683,09:47:00.368,1,false,0.632783,-0.384399,0.575989,0.346497,1.002945,0.062989,-0.027832,-26.821518,-41.484419,22.813291
1785343620.3996,09:47:00.399,2,false,0.632874,-0.383423,0.576172,0.347107,1.008316,0.055177,-0.044923,-26.741334,-41.388468,22.789992
1785343620.4309,09:47:00.430,3,false,0.632884,-0.383057,0.576294,0.34729,1.007828,0.070802,-0.036622,-26.5944,-41.361928,22.739115
1785343620.4621,09:47:00.462,4,false,0.632753,-0.382813,0.576416,0.347595,0.999527,0.059571,-0.041505,-26.686467,-41.338042,22.693326
1785343620.4932,09:47:00.493,5,false,0.63292,-0.382629,0.576538,0.34729,0.997574,0.079591,-0.032227,-26.694558,-41.286636,22.577346
1785343620.5244,09:47:00.524,6,false,0.633236,-0.382568,0.576782,0.346375,1.013199,0.073243,-0.036622,-26.731747,-41.374956,22.562688
1785343620.5555,09:47:00.555,7,false,0.633259,-0.382751,0.576965,0.345825,1.013687,0.090822,-0.029297,-26.705403,-41.319859,22.504634
1785343620.5866,09:47:00.586,8,false,0.633322,-0.382813,0.577148,0.345337,1.00734,0.085451,-0.03418,-26.756461,-41.270272,22.616877
1785343620.6178,09:47:00.617,9,false,0.63338,-0.382568,0.577393,0.345093,1.006851,0.074708,-0.028809,-26.712691,-41.285459,22.463681
1785343620.6489,09:47:00.648,10,false,0.633236,-0.382751,0.577393,0.345154,0.989761,0.078614,-0.028321,-26.628437,-41.299127,22.460389
1785343620.6801,09:47:00.680,11,false,0.633218,-0.383057,0.577393,0.344849,0.999527,0.093263,-0.03418,-26.612423,-41.35629,22.577057
1785343620.7112,09:47:00.711,12,false,0.633014,-0.383484,0.577515,0.344543,1.009293,0.086427,-0.031739,-26.538195,-41.318013,22.562428
1785343620.7423,09:47:00.742,13,false,0.632887,-0.383545,0.577759,0.344299,0.999039,0.090333,-0.035645,-26.591021,-41.283565,22.549261
1785343620.7735,09:47:00.773,14,false,0.632793,-0.383423,0.578125,0.343994,1.008804,0.081544,-0.029786,-26.638564,-41.222653,22.582273
1785343620.8046,09:47:00.804,15,false,0.632692,-0.383606,0.578186,0.343872,1.011246,0.086915,-0.026856,-26.696307,-41.257556,22.52226
1785343620.8359,09:47:00.835,16,false,0.632679,-0.383423,0.57843,0.343689,1.002457,0.083497,-0.027344,-26.823045,-41.13943,22.602834
1785343620.8673,09:47:00.867,17,false,0.632674,-0.383118,0.578674,0.343628,0.998062,0.058595,-0.025391,-26.727755,-41.092931,22.555719
1785343620.8986,09:47:00.898,18,false,0.632809,-0.38269,0.578918,0.343445,1.008804,0.066407,-0.023926,-26.806486,-41.066037,22.603038
1785343620.93,09:47:00.930,19,false,0.632991,-0.382385,0.579102,0.34314,1.00441,0.078614,-0.039063,-26.86239,-41.101647,22.555903
1785343620.9613,09:47:00.961,20,false,0.633024,-0.382385,0.579102,0.343079,1.005386,0.086915,-0.02295,-26.912704,-41.058928,22.618158
1785343620.9927,09:47:00.992,21,false,0.632945,-0.382202,0.579346,0.343018,1.004898,0.086427,-0.032227,-26.868264,-41.065341,22.614372
1785343621.024,09:47:01.024,22,false,0.633043,-0.382019,0.579468,0.342834,1.00441,0.078126,-0.042969,-26.962852,-41.05616,22.670781
1785343621.0553,09:47:01.055,23,false,0.633031,-0.381836,0.579529,0.342957,1.005875,0.075196,-0.037598,-26.913397,-41.212389,22.841179
1785343621.0867,09:47:01.086,24,false,0.633144,-0.381775,0.57959,0.342712,1.021012,0.081056,-0.026856,-26.928702,-41.308133,22.844999
1785343621.118,09:47:01.118,25,false,0.633204,-0.38208,0.579468,0.342468,1.018082,0.076661,-0.032227,-26.91257,-41.259718,22.86339
1785343621.1494,09:47:01.149,26,false,0.633355,-0.382263,0.579651,0.341675,1.017594,0.095216,-0.042969,-26.957866,-41.275961,22.715451
1785343621.1805,09:47:01.180,27,false,0.633312,-0.382568,0.579712,0.341309,1.00148,0.085451,-0.025879,-26.908909,-41.33544,22.672028
1785343621.2116,09:47:01.211,28,false,0.633283,-0.382813,0.579834,0.340881,1.004898,0.083986,-0.03125,-26.894756,-41.388972,22.662855
1785343621.2428,09:47:01.242,29,false,0.633573,-0.382629,0.580139,0.340027,0.996109,0.095705,-0.018555,-26.792295,-41.317519,22.714415
1785343621.2739,09:47:01.273,30,false,0.633816,-0.382568,0.5802,0.339539,1.008316,0.097658,-0.021485,-26.789803,-41.298074,22.805681
1785343621.3051,09:47:01.305,31,false,0.633708,-0.383118,0.579956,0.339539,1.006851,0.096193,-0.030762,-26.922145,-41.340388,22.81305
1785343621.3362,09:47:01.336,0,false,0.633671,-0.383179,0.579956,0.339539,1.006851,0.092287,-0.024414,-27.011345,-41.348564,22.849591
1785343621.3673,09:47:01.367,1,false,0.633712,-0.382996,0.580139,0.339355,1.016617,0.095216,-0.029297,-27.016856,-41.281152,22.852569
1785343621.3985,09:47:01.398,2,false,0.633726,-0.382935,0.5802,0.339294,1.028336,0.09131,-0.035157,-26.976954,-41.145713,22.915066
1785343621.4296,09:47:01.429,3,false,0.633807,-0.382568,0.580566,0.338928,1.009293,0.094728,-0.020996,-26.926088,-41.143448,23.031127
1785343621.4608,09:47:01.460,4,false,0.633977,-0.382202,0.580872,0.338501,0.988785,0.089845,-0.024903,-26.865356,-40.976917,23.120629
1785343621.4919,09:47:01.491,5,false,0.634098,-0.382202,0.580811,0.338379,1.004898,0.083497,-0.030762,-26.780789,-40.991532,23.036689
1785343621.523,09:47:01.523,6,false,0.634259,-0.382507,0.580505,0.338257,1.005875,0.092287,-0.020508,-26.839263,-41.109362,23.080773
1785343621.5542,09:47:01.554,7,false,0.634511,-0.382751,0.580139,0.338135,1.002945,0.106447,-0.014649,-26.891889,-41.095778,23.015772
1785343621.5853,09:47:01.585,8,false,0.635206,-0.380676,0.580566,0.33844,0.988785,0.147951,-0.003906,-26.864484,-41.128415,23.03204
1785343621.6166,09:47:01.616,9,false,0.635531,-0.375244,0.582458,0.340637,0.991714,0.166018,0.003418,-26.899635,-41.023203,22.927051
1785343621.648,09:47:01.648,10,false,0.634784,-0.36499,0.586609,0.346008,0.999527,0.190921,-0.007813,-26.781732,-41.07805,22.83256
1785343621.6793,09:47:01.679,11,false,0.630318,-0.337769,0.59845,0.361206,0.982925,0.115724,-0.013184,-26.735435,-41.321813,22.762473
1785343621.7107,09:47:01.710,12,false,0.624019,-0.315674,0.608582,0.374939,1.002457,0.067384,-0.042969,-26.738629,-41.780461,22.56481
1785343621.742,09:47:01.742,13,false,0.616002,-0.29425,0.618591,0.388977,0.934585,-0.229984,-0.101076,-26.72655,-42.507275,22.596266
1785343621.7734,09:47:01.773,14,false,0.610978,-0.284485,0.623474,0.396301,1.10988,-0.708995,-0.175784,-26.805402,-43.370761,22.59467
1785343621.8047,09:47:01.804,15,false,0.614589,-0.295166,0.620972,0.386719,1.131853,-0.45655,-0.151369,-26.756738,-44.162853,22.50351
1785343621.836,09:47:01.836,16,false,0.620934,-0.318848,0.612427,0.371094,0.978531,-0.3252,-0.076661,-26.71294,-44.576658,22.466327
1785343621.8674,09:47:01.867,17,false,0.623861,-0.327698,0.608582,0.364746,0.995621,-0.070802,-0.052735,-26.823061,-44.844406,22.507632
1785343621.8987,09:47:01.898,18,false,0.631678,-0.351563,0.597839,0.346375,0.986343,0.130373,-0.029786,-26.922169,-44.831164,22.544807
1785343621.9301,09:47:01.930,19,false,0.634641,-0.364624,0.59198,0.337402,0.975113,0.209476,-0.001953,-26.757151,-44.864108,22.548356
1785343621.9614,09:47:01.961,20,false,0.633908,-0.376404,0.588074,0.332642,0.939467,0.278325,0.026368,-26.668451,-44.624588,22.611366
1785343621.9925,09:47:01.992,21,false,0.631072,-0.377747,0.588806,0.335205,0.925307,0.261723,0.058595,-26.573666,-44.468836,22.757798
1785343622.0237,09:47:02.023,22,false,0.627144,-0.374878,0.591431,0.341125,0.942885,0.214359,0.055177,-26.652853,-44.194074,22.769956
1785343622.0548,09:47:02.054,23,false,0.621073,-0.367065,0.59552,0.353394,0.952163,-0.051759,0.001465,-26.783936,-44.111281,22.721083
1785343622.086,09:47:02.086,24,false,0.619252,-0.363159,0.595642,0.360352,1.018082,-0.125002,-0.058106,-26.812188,-44.05172,22.736912
1785343622.1171,09:47:02.117,25,false,0.618875,-0.362366,0.593689,0.36499,1.048356,-0.187991,-0.101564,-26.852568,-44.057932,22.79602
1785343622.1482,09:47:02.148,26,false,0.621024,-0.367188,0.587891,0.365906,1.074723,-0.127932,-0.121584,-26.829095,-43.899029,22.93894
1785343622.1794,09:47:02.179,27,false,0.622983,-0.372192,0.583679,0.364258,1.060075,-0.084474,-0.115236,-26.822923,-43.815833,22.947938
1785343622.2105,09:47:02.210,28,false,0.625526,-0.380005,0.578857,0.359497,1.056657,-0.017578,-0.079103,-26.936999,-43.815725,22.956036
1785343622.2417,09:47:02.241,29,false,0.627129,-0.383972,0.577026,0.355408,1.013199,0.064454,-0.019532,-26.949945,-43.725905,22.978278
1785343622.2728,09:47:02.272,30,false,0.628027,-0.386597,0.576355,0.352051,0.995132,0.13135,0.028321,-26.916734,-43.450667,22.893618
1785343622.3039,09:47:02.303,31,false,0.628506,-0.387512,0.577332,0.348572,0.988785,0.167971,0.038087,-26.75226,-43.158091,22.862287
1785343622.3353,09:47:02.335,0,false,0.628281,-0.38739,0.578247,0.347595,0.98439,0.159182,0.027344,-26.664048,-42.939635,22.819134
1785343622.3666,09:47:02.366,1,false,0.628376,-0.38623,0.578918,0.347595,0.976089,0.097658,0.005371,-26.794012,-42.802839,22.795251
1785343622.398,09:47:02.398,2,false,0.628658,-0.386047,0.578735,0.347595,1.023941,0.057618,-0.040528,-26.64181,-42.634862,22.818617
1785343622.4293,09:47:02.429,3,false,0.629502,-0.386536,0.577637,0.347351,1.036149,0.05713,-0.062989,-26.639413,-42.43882,22.779832
1785343622.4606,09:47:02.460,4,false,0.62997,-0.387085,0.576721,0.347412,1.031754,0.0542,-0.063478,-26.77184,-42.247429,22.729971
1785343622.492,09:47:02.492,5,false,0.630596,-0.387268,0.576172,0.346985,1.021988,0.069337,-0.050782,-26.75644,-42.04527,22.744912
1785343622.5233,09:47:02.523,6,false,0.630906,-0.387146,0.576355,0.346252,1.030777,0.068849,-0.035157,-26.787441,-41.863326,22.788266
1785343622.5547,09:47:02.554,7,false,0.630818,-0.387634,0.576599,0.345459,1.019547,0.087892,-0.024903,-26.710665,-41.759392,22.737562
1785343622.586,09:47:02.586,8,false,0.630506,-0.38855,0.577454,0.343567,0.996597,0.084962,-0.014649,-26.865875,-41.635944,22.691928
1785343622.6174,09:47:02.617,9,false,0.630267,-0.389343,0.577942,0.342285,0.998062,0.080079,-0.005859,-26.885933,-41.569702,22.740581
1785343622.6487,09:47:02.648,10,false,0.630362,-0.389893,0.578369,0.340759,1.006851,0.106935,0.000977,-26.948846,-41.420362,22.799322
1785343622.6798,09:47:02.679,11,false,0.6305,-0.390015,0.578674,0.339844,0.985367,0.098634,-0.001465,-26.930699,-41.360724,22.882097
1785343622.711,09:47:02.711,12,false,0.630854,-0.389282,0.578674,0.340027,0.994644,0.09131,-0.018067,-26.899413,-41.366866,22.911732
1785343622.7421,09:47:02.742,13,false,0.6314,-0.388123,0.578247,0.341064,0.99855,0.08838,-0.038575,-26.916117,-41.297624,22.833728
1785343622.7733,09:47:02.773,14,false,0.631643,-0.387695,0.578125,0.341309,1.004898,0.090822,-0.036622,-26.886289,-41.310076,22.942969
1785343622.8044,09:47:02.804,15,false,0.632246,-0.386719,0.577759,0.341919,1.009293,0.082033,-0.052735,-26.949167,-41.231559,23.011379
1785343622.8355,09:47:02.835,16,false,0.632655,-0.386414,0.577515,0.341919,1.034195,0.082033,-0.054688,-26.916034,-41.250617,22.878549
1785343622.8667,09:47:02.866,17,false,0.63275,-0.386658,0.577393,0.341675,1.032242,0.075196,-0.058595,-26.871261,-41.207954,22.848724
1785343622.8978,09:47:02.897,18,false,0.632772,-0.386597,0.577698,0.341187,1.011246,0.08838,-0.035645,-26.860872,-41.169558,23.001328
1785343622.929,09:47:02.929,19,false,0.632761,-0.386536,0.578003,0.340759,1.003433,0.077638,-0.026856,-26.776753,-41.135001,23.063902
1785343622.9601,09:47:02.960,20,false,0.632833,-0.386353,0.578369,0.34021,1.009781,0.086427,-0.007324,-26.730954,-41.014176,23.105265
1785343622.9912,09:47:02.991,21,false,0.63296,-0.38623,0.578491,0.339905,0.989761,0.087892,-0.029297,-26.719642,-40.905434,23.082676
1785343623.0224,09:47:03.022,22,false,0.633054,-0.386108,0.578613,0.339661,1.005386,0.088869,-0.030274,-26.709462,-40.882336,23.122161
1785343623.0535,09:47:03.053,23,false,0.633152,-0.385925,0.578735,0.339478,1.009293,0.089845,-0.032227,-26.7003,-40.936316,23.053022
1785343623.0846,09:47:03.084,24,false,0.633204,-0.385803,0.578796,0.339417,1.015152,0.092287,-0.040528,-26.736915,-40.910129,23.170242
1785343623.116,09:47:03.116,25,false,0.633209,-0.385437,0.579285,0.338989,1.004898,0.080079,-0.023438,-26.650238,-40.8417,23.141155
1785343623.1473,09:47:03.147,26,false,0.632976,-0.38562,0.579346,0.339111,1.014176,0.085451,-0.021485,-26.796536,-40.929652,22.965439
1785343623.1787,09:47:03.178,27,false,0.63287,-0.385681,0.579529,0.338928,1.01857,0.102052,-0.023926,-26.763713,-40.889178,22.86711
1785343623.21,09:47:03.210,28,false,0.632437,-0.386108,0.579895,0.338623,1.006851,0.096193,-0.026368,-26.808941,-40.777982,22.838429
1785343623.2414,09:47:03.241,29,false,0.632162,-0.386292,0.580322,0.338196,1.006363,0.096681,-0.024903,-26.924415,-40.707813,22.707939
1785343623.2727,09:47:03.272,30,false,0.631703,-0.386292,0.581177,0.337585,1.006851,0.098146,-0.009277,-26.953573,-40.71943,22.740037
1785343623.304,09:47:03.304,31,false,0.631623,-0.386292,0.581299,0.337524,1.014176,0.078126,-0.006836,-27.054584,-40.625209,22.664248
1785343623.3354,09:47:03.335,0,false,0.631534,-0.38623,0.581543,0.337341,1.000015,0.082033,-0.004883,-26.981001,-40.510502,22.685761
1785343623.3667,09:47:03.366,1,false,0.631495,-0.386047,0.581848,0.337097,1.006851,0.090822,-0.013672,-26.989547,-40.556805,22.809799
1785343623.3981,09:47:03.398,2,false,0.631592,-0.385742,0.581909,0.337158,1.006363,0.08838,-0.005859,-27.08696,-40.478846,22.78685
1785343623.4294,09:47:03.429,3,false,0.631476,-0.385681,0.58197,0.337341,1.014664,0.071778,-0.016114,-26.980233,-40.588129,22.736287
1785343623.4605,09:47:03.460,4,false,0.63147,-0.385559,0.582092,0.33728,1.0215,0.089845,-0.028321,-26.958947,-40.611715,22.76555
1785343623.4917,09:47:03.491,5,false,0.63158,-0.385132,0.582397,0.337036,1.013687,0.083986,-0.01416,-26.969698,-40.573127,22.836748
1785343623.5228,09:47:03.522,6,false,0.631741,-0.384766,0.582642,0.336731,1.010758,0.093751,-0.014649,-26.919558,-40.628121,22.91578
1785343623.554,09:47:03.554,7,false,0.631708,-0.384766,0.582642,0.336792,0.993668,0.073732,-0.023438,-26.799663,-40.6178,23.061678
1785343623.5853,09:47:03.585,8,false,0.631854,-0.384277,0.582947,0.336548,1.007828,0.080568,-0.02002,-26.721665,-40.608511,23.08831
1785343623.6164,09:47:03.616,9,false,0.631839,-0.384155,0.583008,0.336609,1.002945,0.087892,-0.013672,-26.756144,-40.570243,23.067416
1785343623.6476,09:47:03.647,10,false,0.631957,-0.383911,0.583252,0.336243,1.01857,0.082033,-0.018067,-26.712405,-40.580664,23.048613
1785343623.6787,09:47:03.678,11,false,0.632016,-0.383789,0.583374,0.33606,1.003433,0.096193,-0.024414,-26.673041,-40.664811,23.031689
1785343623.7099,09:47:03.709,12,false,0.632047,-0.383606,0.583496,0.335999,1.000504,0.085451,-0.028809,-26.682474,-40.680729,23.165996
1785343623.741,09:47:03.741,13,false,0.632161,-0.383301,0.583679,0.335815,1.012711,0.088869,-0.018555,-26.586288,-40.620286,23.152288
1785343623.7721,09:47:03.772,14,false,0.63228,-0.383118,0.58374,0.335693,1.016129,0.087892,-0.018555,-26.649258,-40.640656,23.244628
1785343623.8033,09:47:03.803,15,false,0.632462,-0.382446,0.584229,0.335266,1.010269,0.103029,-0.021973,-26.705931,-40.554312,23.327734
1785343623.8344,09:47:03.834,16,false,0.632449,-0.382202,0.584473,0.335144,1.007828,0.093263,-0.016114,-26.682168,-40.551372,23.357667
1785343623.8657,09:47:03.865,17,false,0.63221,-0.381836,0.5849,0.335266,1.012711,0.053712,-0.024414,-26.675735,-40.638449,23.235069
1785343623.8971,09:47:03.897,18,false,0.632416,-0.380371,0.585876,0.334839,1.01857,0.03711,-0.027344,-26.729761,-40.507464,23.139684
1785343623.9284,09:47:03.928,19,false,0.634157,-0.374207,0.589722,0.331726,1.023453,0.041505,-0.021485,-26.703615,-40.613886,23.158515
1785343623.9598,09:47:03.959,20,false,0.636526,-0.365906,0.594543,0.32782,1.030289,-0.047364,-0.045899,-26.754852,-40.664803,23.325001
1785343623.9911,09:47:03.991,21,false,0.640314,-0.355164,0.600525,0.321289,1.018082,0.007324,-0.033692,-26.875735,-40.71063,23.325301
1785343624.0225,09:47:04.022,22,false,0.646206,-0.344971,0.606812,0.308533,1.010758,0.244144,0.010742,-26.909761,-40.871504,23.400339
1785343624.0538,09:47:04.053,23,false,0.646969,-0.344971,0.608032,0.304504,1.020035,0.292485,0.03418,-27.015153,-41.09106,23.423012
1785343624.0851,09:47:04.085,24,false,0.645258,-0.349792,0.605957,0.306763,0.959487,0.235843,0.021973,-26.975422,-41.303614,23.428464
1785343624.1165,09:47:04.116,25,false,0.640943,-0.36145,0.597168,0.319275,1.002457,0.09424,-0.035645,-27.074248,-41.509867,23.523094
1785343624.1478,09:47:04.147,26,false,0.638046,-0.368469,0.590881,0.328613,1.00441,0.03125,-0.056641,-27.043561,-41.665586,23.503584
1785343624.179,09:47:04.179,27,false,0.635014,-0.372314,0.585571,0.339478,1.013687,-0.092287,-0.087892,-26.926219,-41.716011,23.471071
1785343624.2101,09:47:04.210,28,false,0.635387,-0.370422,0.585693,0.340637,1.063493,-0.153323,-0.09424,-26.985104,-41.806255,23.322178
1785343624.2412,09:47:04.241,29,false,0.640168,-0.357971,0.591614,0.334717,1.033707,-0.076661,-0.086915,-26.948378,-41.797751,23.12836
1785343624.2726,09:47:04.272,30,false,0.64509,-0.345886,0.599121,0.324463,1.04445,0.005859,-0.063478,-27.005047,-41.95459,23.043646
1785343624.3037,09:47:04.303,31,false,0.646159,-0.340271,0.608704,0.31012,1.037613,0.460456,-0.04004,-27.026141,-42.245283,23.042173
1785343624.3349,09:47:04.334,0,false,0.641017,-0.352539,0.60675,0.310913,0.901869,0.430671,0.056153,-27.194665,-42.402231,23.175432
1785343624.366,09:47:04.366,1,false,0.633166,-0.36969,0.598877,0.322144,0.928725,0.156252,0.005859,-27.271566,-42.543483,23.220596
1785343624.3971,09:47:04.397,2,false,0.621355,-0.389465,0.584595,0.347107,1.023453,-0.084474,-0.016114,-27.131424,-42.506118,23.321058
1785343624.4283,09:47:04.428,3,false,0.616166,-0.39563,0.57782,0.360474,1.029313,-0.123049,-0.017578,-27.02025,-42.442582,23.291844
1785343624.4594,09:47:04.459,4,false,0.614266,-0.396118,0.573669,0.36969,1.027848,-0.138186,-0.04004,-26.980009,-42.340538,23.250598
1785343624.4906,09:47:04.490,5,false,0.616369,-0.394592,0.572937,0.368958,1.017105,0.008789,-0.07715,-26.958746,-42.263652,23.258337
1785343624.5217,09:47:04.521,6,false,0.618587,-0.393799,0.572815,0.366272,1.030289,0.052735,-0.063478,-27.05924,-42.299131,23.265303
1785343624.5528,09:47:04.552,7,false,0.620564,-0.393372,0.573608,0.362122,1.026383,0.088869,-0.041993,-27.015099,-42.166571,23.22671
1785343624.584,09:47:04.584,8,false,0.621234,-0.392761,0.574646,0.359985,1.015152,0.075685,-0.029297,-26.840789,-41.957543,23.132161
1785343624.6153,09:47:04.615,9,false,0.621709,-0.391907,0.575745,0.358337,1.039567,0.07129,-0.007324,-26.863355,-41.978772,23.032114
1785343624.6467,09:47:04.646,10,false,0.622501,-0.390564,0.577576,0.355469,1.016617,0.058595,-0.020508,-26.928526,-41.893201,23.031794
1785343624.678,09:47:04.678,11,false,0.623504,-0.389465,0.578918,0.352722,0.99855,0.087404,-0.001953,-27.032042,-41.756372,23.091322
1785343624.7093,09:47:04.709,12,false,0.625091,-0.389221,0.579407,0.349365,0.987808,0.122072,-0.004395,-27.199975,-41.693042,23.085081
1785343624.7407,09:47:04.740,13,false,0.625537,-0.389343,0.579285,0.348633,0.961929,0.115236,-0.016114,-27.201577,-41.710813,23.079465
1785343624.772,09:47:04.772,14,false,0.626493,-0.389404,0.578613,0.347961,0.996109,0.103029,-0.043458,-27.068434,-41.562315,23.089363
1785343624.8034,09:47:04.803,15,false,0.627346,-0.388611,0.578369,0.347717,1.003433,0.092775,-0.043458,-26.993467,-41.548298,23.068365
1785343624.8347,09:47:04.834,16,false,0.628325,-0.387756,0.578247,0.347107,1.037125,0.089845,-0.040528,-27.180211,-41.460913,22.87002
1785343624.8661,09:47:04.866,17,false,0.628296,-0.387512,0.578552,0.346924,1.027359,0.081544,-0.029786,-27.198743,-41.307497,22.796187
1785343624.8974,09:47:04.897,18,false,0.628184,-0.386963,0.579407,0.346313,1.027359,0.07422,-0.019043,-27.110745,-41.2741,22.684875
1785343624.9287,09:47:04.928,19,false,0.628185,-0.385315,0.581482,0.344666,0.997086,0.089357,-0.004883,-27.0465,-41.154319,22.749187
1785343624.9601,09:47:04.960,20,false,0.628269,-0.383911,0.582825,0.343811,0.997574,0.081544,0.001465,-26.98868,-41.196055,22.881837
1785343624.9914,09:47:04.991,21,false,0.628687,-0.381836,0.584167,0.343079,0.994156,0.083986,-0.009277,-26.951596,-41.143895,22.911498
1785343625.0226,09:47:05.022,22,false,0.630028,-0.378296,0.585632,0.342041,1.011246,0.0542,-0.024903,-27.007943,-41.216581,22.983055
1785343625.0537,09:47:05.053,23,false,0.631334,-0.375793,0.586548,0.34082,1.01564,0.07715,-0.028809,-26.909117,-41.177322,23.017549
1785343625.0848,09:47:05.084,24,false,0.633545,-0.371887,0.588135,0.338257,1.02443,0.080079,-0.041993,-26.80522,-41.201803,23.063547
1785343625.116,09:47:05.116,25,false,0.634889,-0.369385,0.589417,0.336243,1.009781,0.07715,-0.03711,-26.756574,-41.223837,23.104946
1785343625.1471,09:47:05.147,26,false,0.635917,-0.36731,0.590576,0.334534,1.017105,0.060548,-0.041993,-26.802516,-41.363298,23.20202
1785343625.1783,09:47:05.178,27,false,0.637316,-0.363342,0.592896,0.332092,1.019059,0.050294,-0.033692,-26.724233,-41.488813,23.080032
1785343625.2094,09:47:05.209,28,false,0.638507,-0.359619,0.595276,0.32959,0.989761,0.055665,-0.023926,-26.683686,-41.437285,23.059967
1785343625.2405,09:47:05.240,29,false,0.640783,-0.3526,0.599365,0.325317,0.994156,0.064942,-0.013184,-26.572424,-41.645124,23.041908
1785343625.2717,09:47:05.271,30,false,0.641703,-0.349609,0.600891,0.323914,1.013687,0.05127,-0.025391,-26.621827,-41.877041,23.055563
1785343625.3028,09:47:05.302,31,false,0.644387,-0.338135,0.606812,0.319702,0.988296,0.00293,-0.032715,-26.606474,-42.070812,23.052898
1785343625.3342,09:47:05.334,0,false,0.646739,-0.327271,0.611877,0.316589,1.011734,-0.038575,-0.041505,-26.742195,-42.349884,22.97573
1785343625.3653,09:47:05.365,1,false,0.651248,-0.308777,0.620667,0.308716,1.00441,0.011231,-0.018067,-26.595175,-42.630955,22.981049
1785343625.3966,09:47:05.396,2,false,0.654745,-0.296265,0.626099,0.302551,0.988296,-0.045411,-0.039551,-26.717072,-43.123181,23.00079
1785343625.428,09:47:05.428,3,false,0.659014,-0.281982,0.631287,0.296082,0.990249,-0.08838,-0.048341,-26.647333,-43.596093,23.03351
1785343625.4593,09:47:05.459,4,false,0.666884,-0.257385,0.639709,0.282471,1.01564,-0.037598,-0.074708,-26.659337,-44.201159,23.03305
1785343625.4907,09:47:05.490,5,false,0.671719,-0.240234,0.645508,0.272766,1.001968,-0.036133,-0.064454,-26.655187,-44.760672,23.017683
1785343625.522,09:47:05.522,6,false,0.677613,-0.219849,0.652161,0.259216,0.992203,0.026368,-0.043458,-26.576683,-45.368911,23.063668
1785343625.5533,09:47:05.553,7,false,0.687725,-0.186951,0.661499,0.233459,1.010758,0.066407,-0.058595,-26.520983,-46.155587,23.239639
1785343625.5847,09:47:05.584,8,false,0.693273,-0.167725,0.666016,0.218323,1.02443,0.059571,-0.053712,-26.530669,-46.893504,23.442874
1785343625.616,09:47:05.616,9,false,0.699334,-0.141724,0.671448,0.200012,1.028336,0.053712,-0.049805,-26.434709,-47.692213,23.551017
1785343625.6474,09:47:05.647,10,false,0.700751,-0.133728,0.672974,0.195374,1.017105,0.01709,-0.062989,-26.348345,-48.680221,23.723114
1785343625.6787,09:47:05.678,11,false,0.703584,-0.111755,0.67688,0.185242,1.006851,-0.017578,-0.066896,-26.150986,-49.599335,24.162125
1785343625.7101,09:47:05.710,12,false,0.704663,-0.099121,0.678894,0.180908,0.996597,-0.03711,-0.05713,-26.182718,-50.486354,24.437604
1785343625.7412,09:47:05.741,13,false,0.705608,-0.083008,0.681274,0.176331,1.00441,-0.06836,-0.059571,-26.001922,-51.523932,24.670581
1785343625.7723,09:47:05.772,14,false,0.70582,-0.073364,0.682678,0.174316,0.997574,-0.123049,-0.071778,-25.809298,-52.338122,24.95503
1785343625.8035,09:47:05.803,15,false,0.705833,-0.064209,0.684143,0.172119,0.990249,-0.143069,-0.052735,-25.680799,-53.205477,25.151218
1785343625.8346,09:47:05.834,16,false,0.705347,-0.051636,0.686646,0.168335,1.003433,-0.151369,-0.046387,-25.430564,-54.150589,25.596957
1785343625.8658,09:47:05.865,17,false,0.704676,-0.044006,0.688354,0.166321,1.010269,-0.166506,-0.026856,-25.324984,-55.001189,25.893445
1785343625.8969,09:47:05.896,18,false,0.703292,-0.034485,0.690735,0.164551,0.992691,-0.149416,-0.019043,-25.244915,-55.751776,26.100469
1785343625.928,09:47:05.928,19,false,0.702604,-0.029846,0.69165,0.164551,0.987808,-0.15967,-0.021973,-25.217715,-56.502073,26.28679
1785343625.9592,09:47:05.959,20,false,0.702297,-0.02655,0.691833,0.165649,0.983413,-0.183597,-0.017578,-25.073605,-57.177341,26.499341
1785343625.9903,09:47:05.990,21,false,0.702228,-0.023193,0.691406,0.168213,0.988785,-0.208499,-0.029786,-24.943905,-57.964528,26.870083
1785343626.0214,09:47:06.021,22,false,0.699215,-0.03418,0.69043,0.182312,0.98146,-0.19971,-0.022461,-24.872037,-58.523458,27.08412
1785343626.0526,09:47:06.052,23,false,0.696864,-0.04248,0.68927,0.193604,0.990738,-0.212406,-0.03711,-24.94194,-59.190987,27.411338
1785343626.0837,09:47:06.083,24,false,0.694846,-0.049255,0.6875,0.2052,0.976089,-0.20264,-0.04004,-24.945038,-59.672132,27.466572
1785343626.1151,09:47:06.115,25,false,0.691957,-0.058899,0.685669,0.21814,0.974624,-0.189944,-0.040528,-24.723518,-60.20984,27.591053
1785343626.1464,09:47:06.146,26,false,0.686407,-0.074951,0.682373,0.23999,0.965347,-0.218265,-0.051759,-24.52415,-60.693777,27.703085
1785343626.1777,09:47:06.177,27,false,0.684523,-0.079956,0.681213,0.246948,0.985367,-0.223636,-0.070314,-24.344719,-61.084459,27.699237
1785343626.2091,09:47:06.209,28,false,0.683544,-0.080688,0.679688,0.25354,0.985367,-0.23682,-0.07422,-24.078554,-61.570657,27.815405
1785343626.2404,09:47:06.240,29,false,0.679193,-0.090271,0.677795,0.266724,0.982437,-0.258793,-0.066896,-23.839006,-61.978328,27.919956
1785343626.2718,09:47:06.271,30,false,0.672545,-0.104614,0.67511,0.284546,0.99855,-0.266117,-0.089357,-23.608458,-62.390093,28.073867
1785343626.3031,09:47:06.303,31,false,0.667913,-0.113647,0.673767,0.294983,0.996109,-0.277348,-0.072755,-23.490689,-62.790589,28.227341
1785343626.3345,09:47:06.334,0,false,0.664017,-0.120544,0.673035,0.302612,0.985367,-0.261723,-0.065919,-23.59405,-63.270667,28.425283
1785343626.3658,09:47:06.365,1,false,0.659307,-0.12793,0.672913,0.310059,0.981949,-0.270512,-0.050782,-23.477721,-63.433567,28.513707
1785343626.3971,09:47:06.397,2,false,0.654814,-0.136108,0.672424,0.317078,0.973648,-0.248539,-0.048829,-23.417887,-63.759624,28.653105
1785343626.4285,09:47:06.428,3,false,0.650486,-0.145081,0.671814,0.323242,0.995132,-0.245121,-0.050294,-23.30422,-64.068029,28.658932
1785343626.4596,09:47:06.459,4,false,0.644064,-0.1604,0.670532,0.331421,0.971206,-0.242191,-0.030274,-23.246782,-64.270824,28.514638
1785343626.491,09:47:06.491,5,false,0.640408,-0.171143,0.669067,0.33606,0.957534,-0.239261,-0.031739,-23.284811,-64.438385,28.549266
1785343626.5221,09:47:06.522,6,false,0.636594,-0.187561,0.664856,0.342834,0.965835,-0.252934,-0.01416,-23.393806,-64.514422,28.505661
1785343626.5532,09:47:06.553,7,false,0.635043,-0.197937,0.661072,0.347168,0.98146,-0.240238,-0.040528,-23.25264,-64.567901,28.421556
1785343626.5844,09:47:06.584,8,false,0.634028,-0.207031,0.657349,0.350769,0.985367,-0.193362,-0.037598,-23.305037,-64.541262,28.555215
1785343626.6155,09:47:06.615,9,false,0.632283,-0.218567,0.652222,0.356445,1.005875,-0.172366,-0.058106,-23.412009,-64.382703,28.406338
1785343626.6467,09:47:06.646,10,false,0.630983,-0.224854,0.649292,0.360168,0.990738,-0.171389,-0.05713,-23.388654,-64.314769,28.377026
1785343626.6778,09:47:06.677,11,false,0.628804,-0.232544,0.645996,0.36499,1.003433,-0.161135,-0.055177,-23.472311,-64.208767,28.485231
1785343626.7091,09:47:06.709,12,false,0.627895,-0.234863,0.645142,0.366577,0.997086,-0.1626,-0.045411,-23.57751,-64.218043,28.477938
1785343626.7403,09:47:06.740,13,false,0.62504,-0.240967,0.642761,0.371643,0.979507,-0.176272,-0.038575,-23.537604,-64.241344,28.591005
1785343626.7714,09:47:06.771,14,false,0.623301,-0.244751,0.641174,0.374817,0.986831,-0.162112,-0.046876,-23.636274,-64.217454,28.573134
1785343626.8026,09:47:06.802,15,false,0.621133,-0.249451,0.638916,0.37915,1.00734,-0.185061,-0.048341,-23.680215,-64.136137,28.601912
1785343626.8337,09:47:06.833,16,false,0.619894,-0.252136,0.637573,0.381653,1.005386,-0.184085,-0.054688,-23.719762,-64.018091,28.493228
1785343626.8648,09:47:06.864,17,false,0.618932,-0.254761,0.636292,0.383606,1.000504,-0.166018,-0.062013,-23.785262,-63.986618,28.425318
1785343626.8962,09:47:06.896,18,false,0.617318,-0.258972,0.634644,0.386108,0.998062,-0.136721,-0.045411,-23.754489,-63.913431,28.349248
1785343626.9275,09:47:06.927,19,false,0.616252,-0.261963,0.633484,0.387695,0.999527,-0.13135,-0.049805,-23.816516,-63.862517,28.445276
1785343626.9589,09:47:06.958,20,false,0.615254,-0.264832,0.632324,0.389221,0.995132,-0.123537,-0.053712,-23.917202,-63.741925,28.531702
1785343626.9902,09:47:06.990,21,false,0.614124,-0.26886,0.630249,0.391602,0.993179,-0.096681,-0.064942,-23.873235,-63.648346,28.444992
1785343627.0215,09:47:07.021,22,false,0.613542,-0.27124,0.628845,0.393127,0.993668,-0.103517,-0.06006,-23.833665,-63.713663,28.47163
1785343627.0529,09:47:07.052,23,false,0.61251,-0.273193,0.627319,0.395813,0.982925,-0.111818,-0.052247,-23.902728,-63.667772,28.420836
1785343627.0842,09:47:07.084,24,false,0.612108,-0.273621,0.626831,0.396912,1.010269,-0.125002,-0.066896,-23.949931,-63.641423,28.434936
1785343627.1156,09:47:07.115,25,false,0.611169,-0.27533,0.624939,0.400146,1.015152,-0.123049,-0.071778,-23.827922,-63.527987,28.357903
1785343627.1469,09:47:07.146,26,false,0.61071,-0.276672,0.623657,0.401917,1.011734,-0.144045,-0.069825,-23.867652,-63.455801,28.288573
1785343627.1783,09:47:07.178,27,false,0.610634,-0.27887,0.621765,0.403442,1.013687,-0.119631,-0.084962,-23.753871,-63.390835,28.330854
1785343627.2094,09:47:07.209,28,false,0.610323,-0.281311,0.620056,0.404846,0.99855,-0.114748,-0.087404,-23.786052,-63.466949,28.249275
1785343627.2405,09:47:07.240,29,false,0.610077,-0.28186,0.61969,0.405396,1.041032,-0.124514,-0.080079,-24.009416,-63.445729,28.295485
1785343627.2717,09:47:07.271,30,false,0.607995,-0.284119,0.619263,0.407593,1.031754,-0.12549,-0.065919,-24.030996,-63.456539,28.307166
1785343627.3028,09:47:07.302,31,false,0.605919,-0.286133,0.619324,0.40918,1.030289,-0.116213,-0.053712,-24.035465,-63.555991,28.227957
1785343627.334,09:47:07.334,0,false,0.602408,-0.2901,0.619812,0.410828,1.01857,-0.130373,-0.041505,-23.979672,-63.481005,28.171622
1785343627.3651,09:47:07.365,1,false,0.600715,-0.293335,0.61969,0.411194,0.996109,-0.109377,-0.025391,-24.004227,-63.563056,28.195689
1785343627.3962,09:47:07.396,2,false,0.599199,-0.296082,0.619446,0.411804,0.994644,-0.118166,-0.010254,-24.131003,-63.532226,28.09772
1785343627.4274,09:47:07.427,3,false,0.597486,-0.297668,0.619446,0.413147,0.976089,-0.101564,-0.015137,-24.230148,-63.519432,28.323577
1785343627.4585,09:47:07.458,4,false,0.596782,-0.297852,0.619385,0.414124,0.965347,-0.103517,-0.010254,-24.169841,-63.582687,28.302542
1785343627.4896,09:47:07.489,5,false,0.596368,-0.297913,0.619019,0.415222,0.967788,-0.107424,-0.03125,-24.130517,-63.579801,28.418194
1785343627.5208,09:47:07.520,6,false,0.595883,-0.29657,0.618652,0.417419,1.016129,-0.156741,-0.046876,-24.229711,-63.637019,28.327882
1785343627.5519,09:47:07.551,7,false,0.595285,-0.2948,0.618835,0.41925,1.023941,-0.148928,-0.061524,-24.154493,-63.808145,28.396139
1785343627.5833,09:47:07.583,8,false,0.593429,-0.292969,0.61908,0.422791,1.038102,-0.196292,-0.077638,-24.17652,-63.947206,28.308032
1785343627.6144,09:47:07.614,9,false,0.592621,-0.292664,0.61908,0.424133,1.023941,-0.230472,-0.073732,-24.031852,-63.952729,28.318459
1785343627.6455,09:47:07.645,10,false,0.590391,-0.291809,0.619263,0.427551,0.996597,-0.23682,-0.073732,-24.006327,-64.062377,28.35775
1785343627.6769,09:47:07.676,11,false,0.589447,-0.291077,0.619324,0.42926,0.988785,-0.232425,-0.07715,-24.088032,-64.250784,28.408067
1785343627.7082,09:47:07.708,12,false,0.588236,-0.290588,0.619263,0.431335,0.965347,-0.210452,-0.064454,-24.026982,-64.22595,28.513167
1785343627.7396,09:47:07.739,13,false,0.587316,-0.290283,0.619385,0.432617,0.945327,-0.21387,-0.059083,-24.001945,-64.263414,28.383449
1785343627.7709,09:47:07.770,14,false,0.586613,-0.290222,0.619141,0.43396,0.939467,-0.201663,-0.063478,-23.979411,-64.446671,28.341473
1785343627.8022,09:47:07.802,15,false,0.585564,-0.289551,0.618774,0.43634,0.963394,-0.21387,-0.073732,-23.824546,-64.521878,28.184063
1785343627.8336,09:47:07.833,16,false,0.584985,-0.289124,0.61853,0.437744,0.963882,-0.217777,-0.066896,-23.789845,-64.395166,28.132117
1785343627.8649,09:47:07.864,17,false,0.584128,-0.287964,0.618713,0.439392,1.016617,-0.254887,-0.086427,-23.638983,-64.415708,28.085366
1785343627.8963,09:47:07.896,18,false,0.58084,-0.284363,0.620422,0.443665,0.985855,-0.310063,-0.070314,-23.637791,-64.464105,27.953567
1785343627.9276,09:47:07.927,19,false,0.578428,-0.281555,0.621765,0.446716,0.956069,-0.316411,-0.073243,-23.56195,-64.4628,27.939625
1785343627.959,09:47:07.959,20,false,0.576263,-0.278687,0.622559,0.450195,0.945327,-0.330571,-0.092775,-23.40397,-64.551349,27.837354
1785343627.9903,09:47:07.990,21,false,0.575289,-0.277893,0.62262,0.451843,0.938979,-0.328618,-0.07422,-23.411326,-64.631043,27.640633
1785343628.0216,09:47:08.021,22,false,0.574567,-0.277649,0.622375,0.453247,0.913588,-0.318853,-0.086915,-23.268408,-64.672859,27.598169
1785343628.0528,09:47:08.052,23,false,0.574448,-0.276855,0.621948,0.454468,0.914565,-0.317388,-0.093751,-23.079966,-64.800217,27.649674
1785343628.0839,09:47:08.083,24,false,0.574675,-0.275818,0.621887,0.454895,0.925307,-0.320317,-0.08838,-23.134677,-64.840071,27.561445
1785343628.1151,09:47:08.115,25,false,0.574524,-0.274231,0.622192,0.455627,0.957046,-0.318364,-0.092287,-23.064285,-64.9208,27.616622
1785343628.1462,09:47:08.146,26,false,0.574344,-0.273926,0.622314,0.455872,0.960952,-0.314458,-0.08838,-22.985979,-65.038318,27.546651
1785343628.1773,09:47:08.177,27,false,0.573379,-0.274292,0.622864,0.456116,0.959976,-0.321294,-0.083497,-22.855688,-65.173992,27.573401
1785343628.2085,09:47:08.208,28,false,0.572834,-0.274902,0.62323,0.455933,0.963882,-0.318364,-0.071778,-22.917873,-65.236283,27.53766
1785343628.2396,09:47:08.239,29,false,0.572023,-0.276367,0.624084,0.454895,0.976089,-0.302739,-0.061036,-22.719623,-65.35216,27.565308
1785343628.2708,09:47:08.270,30,false,0.571553,-0.277527,0.624756,0.453857,0.959487,-0.288579,-0.033692,-22.735598,-65.45645,27.739731
1785343628.3019,09:47:08.301,31,false,0.571072,-0.278748,0.625183,0.453125,0.955093,-0.289555,-0.029786,-22.749976,-65.400772,27.821941
1785343628.333,09:47:08.333,0,false,0.571187,-0.279602,0.625183,0.452454,0.984878,-0.260746,-0.041505,-22.77787,-65.395523,27.761346
1785343628.3642,09:47:08.364,1,false,0.571447,-0.279541,0.625061,0.452332,0.964858,-0.264652,-0.035157,-22.728206,-65.435661,27.78158
1785343628.3953,09:47:08.395,2,false,0.572394,-0.279175,0.624756,0.451782,0.968276,-0.261234,-0.033204,-22.728369,-65.501693,27.769883
1785343628.4266,09:47:08.426,3,false,0.574493,-0.278137,0.624084,0.450684,0.986831,-0.235355,-0.0542,-22.698608,-65.591029,27.69954
1785343628.458,09:47:08.458,4,false,0.576261,-0.277039,0.623779,0.449524,0.98732,-0.23682,-0.066896,-22.776501,-65.611617,27.770816
1785343628.4893,09:47:08.489,5,false,0.579038,-0.275452,0.62384,0.446838,0.979507,-0.221683,-0.066407,-22.921373,-65.630145,27.760195
1785343628.5207,09:47:08.520,6,false,0.580014,-0.274841,0.623901,0.445862,0.994156,-0.183597,-0.070802,-22.976989,-65.601959,27.825405
1785343628.552,09:47:08.552,7,false,0.58186,-0.273621,0.624329,0.443604,0.995621,-0.200687,-0.088869,-22.967228,-65.561638,27.824279
1785343628.5834,09:47:08.583,8,false,0.582691,-0.27301,0.624817,0.4422,1.013687,-0.171389,-0.080079,-22.973396,-65.435626,27.808312
1785343628.6147,09:47:08.614,9,false,0.582447,-0.273376,0.625488,0.441345,0.991714,-0.184573,-0.069825,-23.038764,-65.531569,27.838803
1785343628.646,09:47:08.646,10,false,0.581108,-0.274536,0.626526,0.440918,0.998062,-0.209964,-0.080079,-22.977964,-65.498287,27.985876
1785343628.6774,09:47:08.677,11,false,0.580512,-0.27478,0.627014,0.440857,0.975601,-0.203616,-0.05713,-22.773705,-65.468333,28.148149
1785343628.7087,09:47:08.708,12,false,0.578191,-0.275208,0.62854,0.441467,0.965347,-0.223148,-0.047364,-22.859041,-65.441375,28.294194
1785343628.74,09:47:08.740,13,false,0.576577,-0.275269,0.629395,0.442322,0.969253,-0.239261,-0.037598,-22.876029,-65.476928,28.231236
1785343628.7711,09:47:08.771,14,false,0.574342,-0.274414,0.631165,0.443237,0.979019,-0.244633,-0.045899,-22.86141,-65.464064,28.383926
1785343628.8025,09:47:08.802,15,false,0.573033,-0.27417,0.632202,0.443604,1.011734,-0.259281,-0.05127,-22.893114,-65.587071,28.401718
1785343628.8336,09:47:08.833,16,false,0.571458,-0.274414,0.633179,0.444092,0.999527,-0.276371,-0.039551,-22.96651,-65.697777,28.492499
1785343628.8647,09:47:08.864,17,false,0.569509,-0.274841,0.634277,0.444763,0.983413,-0.26807,-0.032715,-22.942843,-65.737597,28.693832
1785343628.8959,09:47:08.895,18,false,0.568419,-0.275208,0.63501,0.444885,0.978531,-0.265629,-0.031739,-22.846773,-65.743528,28.725494
1785343628.927,09:47:08.927,19,false,0.567433,-0.276001,0.635376,0.445129,0.962417,-0.273442,-0.016602,-22.83508,-65.748865,28.724083
1785343628.9582,09:47:08.958,20,false,0.566736,-0.27771,0.635254,0.445129,0.96144,-0.260258,-0.026368,-22.824556,-65.828438,28.797581
1785343628.9893,09:47:08.989,21,false,0.566656,-0.278625,0.63501,0.445007,0.975601,-0.251469,-0.041505,-22.830038,-65.8851,28.98336
1785343629.0204,09:47:09.020,22,false,0.566489,-0.278992,0.634827,0.445251,0.9673,-0.244144,-0.028809,-22.775156,-66.025819,29.030931
1785343629.0516,09:47:09.051,23,false,0.566398,-0.27887,0.634705,0.445618,0.961929,-0.234379,-0.044434,-22.785579,-65.943112,29.088699
1785343629.0827,09:47:09.082,24,false,0.565867,-0.277527,0.634521,0.447388,0.969741,-0.255375,-0.052735,-22.525789,-66.018214,29.170597
1785343629.1138,09:47:09.113,25,false,0.565583,-0.276733,0.634216,0.448669,0.969741,-0.258305,-0.051759,-22.546194,-66.100759,29.199444
1785343629.145,09:47:09.145,26,false,0.565286,-0.276855,0.633606,0.449829,0.98439,-0.260746,-0.050294,-22.48979,-66.175051,29.359991
1785343629.1763,09:47:09.176,27,false,0.565076,-0.277527,0.63324,0.450195,0.973159,-0.235843,-0.045899,-22.439025,-66.212005,29.265222
1785343629.2077,09:47:09.207,28,false,0.564747,-0.278137,0.633179,0.450317,0.962417,-0.235843,-0.042969,-22.408291,-66.290125,29.194883
1785343629.239,09:47:09.239,29,false,0.563858,-0.27887,0.633301,0.450806,0.988785,-0.221683,-0.029786,-22.440446,-66.270711,29.17644
1785343629.2703,09:47:09.270,30,false,0.563411,-0.278564,0.633789,0.450867,0.990249,-0.232425,-0.029297,-22.618924,-66.298099,29.234611
1785343629.3017,09:47:09.301,31,false,0.56277,-0.278137,0.634155,0.451416,0.974136,-0.241703,-0.033204,-22.659923,-66.352656,29.15238
1785343629.333,09:47:09.333,0,false,0.561366,-0.2771,0.634766,0.452942,0.973648,-0.262211,-0.035645,-22.547284,-66.297081,29.138187
1785343629.3644,09:47:09.364,1,false,0.560952,-0.275879,0.635315,0.45343,0.967788,-0.280766,-0.025391,-22.610401,-66.366694,29.11046
1785343629.3957,09:47:09.395,2,false,0.560653,-0.274475,0.635925,0.453796,0.960952,-0.252445,-0.030274,-22.562529,-66.429345,29.085505
1785343629.427,09:47:09.427,3,false,0.561247,-0.27356,0.63623,0.453186,0.974136,-0.25684,-0.033692,-22.609168,-66.366101,29.048092
1785343629.4584,09:47:09.458,4,false,0.56172,-0.272888,0.636536,0.452576,0.969253,-0.272953,-0.041993,-22.516558,-66.368997,29.134051
1785343629.4895,09:47:09.489,5,false,0.56224,-0.272217,0.636841,0.451904,0.977554,-0.266117,-0.029786,-22.567794,-66.416464,29.121691
1785343629.5207,09:47:09.520,6,false,0.562318,-0.272461,0.636841,0.45166,0.979507,-0.25684,-0.029297,-22.43446,-66.608723,29.08066
1785343629.552,09:47:09.552,7,false,0.562081,-0.272949,0.636841,0.45166,0.973648,-0.265141,-0.033204,-22.463998,-66.781756,29.253085
1785343629.5832,09:47:09.583,8,false,0.56216,-0.273071,0.636719,0.45166,0.976089,-0.276371,-0.03125,-22.490582,-66.907579,29.303591
1785343629.6143,09:47:09.614,9,false,0.562091,-0.273865,0.636353,0.451782,0.988296,-0.274418,-0.03125,-22.514508,-66.87128,29.274277
1785343629.6454,09:47:09.645,10,false,0.562552,-0.273865,0.636292,0.451294,0.969253,-0.289555,-0.025879,-22.580902,-66.928335,29.30771
1785343629.6766,09:47:09.676,11,false,0.56347,-0.273987,0.636292,0.450073,0.973648,-0.278813,-0.034668,-22.521027,-66.889961,29.45743
1785343629.7077,09:47:09.707,12,false,0.564054,-0.273987,0.636292,0.449341,0.960464,-0.270024,-0.027344,-22.467139,-66.780655,29.457594
1785343629.7388,09:47:09.738,13,false,0.564657,-0.27417,0.636108,0.44873,0.957534,-0.262211,-0.027832,-22.388732,-66.921541,29.442788
1785343629.77,09:47:09.770,14,false,0.565938,-0.275146,0.635193,0.447815,0.972183,-0.266117,-0.041505,-22.363027,-66.868893,29.429462
1785343629.8011,09:47:09.801,15,false,0.566885,-0.276062,0.634338,0.447266,0.950698,-0.247074,-0.045899,-22.354847,-66.86637,29.46233
1785343629.8323,09:47:09.832,16,false,0.567779,-0.276794,0.633606,0.446716,0.980484,-0.262699,-0.046876,-22.362438,-66.879054,29.476958
1785343629.8634,09:47:09.863,17,false,0.568945,-0.278564,0.632385,0.445862,0.973159,-0.229496,-0.055177,-22.473948,-66.845608,29.400399
1785343629.8945,09:47:09.894,18,false,0.569727,-0.27948,0.631836,0.445068,0.964858,-0.239261,-0.043458,-22.364952,-66.800553,29.495989
1785343629.9259,09:47:09.925,19,false,0.570669,-0.28064,0.631287,0.443909,0.971695,-0.256352,-0.047852,-22.536026,-66.789911,29.432482
1785343629.9572,09:47:09.957,20,false,0.570916,-0.281128,0.631104,0.443542,0.967788,-0.251469,-0.039063,-22.495592,-66.705564,29.450094
1785343629.9886,09:47:09.988,21,false,0.571708,-0.282043,0.63092,0.4422,0.975113,-0.23682,-0.052247,-22.548924,-66.569836,29.450992
1785343630.0199,09:47:10.019,22,false,0.571956,-0.282715,0.630737,0.441711,0.958999,-0.25684,-0.03711,-22.581969,-66.507497,29.391984
1785343630.0512,09:47:10.051,23,false,0.57229,-0.283875,0.630554,0.440796,0.984878,-0.238773,-0.047852,-22.596756,-66.391576,29.398692
1785343630.0826,09:47:10.082,24,false,0.572193,-0.284851,0.630798,0.439941,0.979995,-0.254887,-0.042969,-22.490434,-66.481647,29.539314
1785343630.1139,09:47:10.113,25,false,0.572286,-0.285095,0.630859,0.439575,0.971206,-0.244144,-0.023926,-22.663913,-66.233726,29.606059
1785343630.1453,09:47:10.145,26,false,0.572364,-0.286438,0.630859,0.438599,0.969741,-0.237797,-0.036622,-22.625644,-66.115275,29.621267
1785343630.1766,09:47:10.176,27,false,0.572673,-0.287354,0.630798,0.437683,0.971695,-0.256352,-0.027832,-22.680925,-66.173161,29.694771
1785343630.2079,09:47:10.207,28,false,0.573493,-0.28894,0.630554,0.435913,0.982925,-0.234379,-0.028809,-22.715724,-66.060766,29.775877
1785343630.2393,09:47:10.239,29,false,0.573964,-0.289917,0.63031,0.434998,0.979507,-0.210452,-0.025879,-22.732089,-66.049333,29.75915
1785343630.2706,09:47:10.270,30,false,0.574442,-0.290771,0.629944,0.434326,0.989761,-0.207034,-0.026856,-22.896357,-65.859598,29.774003
1785343630.3018,09:47:10.301,31,false,0.57526,-0.291626,0.629517,0.433289,0.995132,-0.19678,-0.027832,-22.984382,-65.883236,29.772417
1785343630.3329,09:47:10.332,0,false,0.575395,-0.292603,0.62915,0.432983,0.991714,-0.20264,-0.02002,-22.899112,-65.814787,29.756036
1785343630.3641,09:47:10.364,1,false,0.575959,-0.293091,0.628784,0.432434,0.994156,-0.200198,-0.034668,-22.971908,-65.648506,29.771201
1785343630.3952,09:47:10.395,2,false,0.57682,-0.294617,0.627869,0.43158,0.99855,-0.172854,-0.041993,-23.127147,-65.663346,29.695126
1785343630.4263,09:47:10.426,3,false,0.577329,-0.296143,0.626892,0.431274,0.98732,-0.167483,-0.028321,-23.117324,-65.601933,29.596751
1785343630.4575,09:47:10.457,4,false,0.577744,-0.298157,0.625427,0.431458,0.987808,-0.18262,-0.038087,-23.078575,-65.441983,29.478306
1785343630.4886,09:47:10.488,5,false,0.578108,-0.298523,0.625,0.431335,0.99855,-0.167483,-0.039063,-23.148379,-65.477475,29.610967
1785343630.5197,09:47:10.519,6,false,0.578847,-0.299622,0.624084,0.430908,0.992203,-0.161624,-0.029786,-23.121479,-65.449603,29.610731
1785343630.5511,09:47:10.551,7,false,0.579347,-0.30011,0.623596,0.430603,0.991226,-0.151858,-0.038575,-23.306622,-65.439471,29.625472
1785343630.5822,09:47:10.582,8,false,0.580126,-0.300232,0.623108,0.430176,0.997086,-0.161624,-0.032227,-23.323713,-65.400445,29.608832
1785343630.6134,09:47:10.613,9,false,0.58044,-0.300354,0.622925,0.429932,0.998062,-0.153323,-0.035645,-23.428818,-65.380275,29.608809
1785343630.6445,09:47:10.644,10,false,0.580623,-0.300476,0.622864,0.429688,1.000015,-0.158206,-0.038087,-23.448643,-65.436892,29.638696
1785343630.6758,09:47:10.675,11,false,0.580718,-0.30072,0.622742,0.429565,0.988785,-0.172366,-0.044923,-23.451532,-65.353262,29.650641
1785343630.7072,09:47:10.707,12,false,0.580506,-0.301208,0.62262,0.429688,0.994644,-0.187015,-0.040528,-23.60367,-65.248088,29.526807
1785343630.7385,09:47:10.738,13,false,0.580212,-0.30127,0.622864,0.429688,1.00734,-0.190921,-0.038087,-23.486379,-65.093616,29.460218
1785343630.7699,09:47:10.769,14,false,0.579312,-0.301208,0.623352,0.430237,0.978042,-0.188968,-0.039063,-23.500448,-65.104129,29.325518
1785343630.8012,09:47:10.801,15,false,0.578788,-0.301147,0.623657,0.430542,0.978531,-0.202152,-0.036133,-23.677603,-64.949099,29.338873
1785343630.8326,09:47:10.832,16,false,0.579046,-0.300598,0.624146,0.429871,0.988785,-0.191409,-0.039551,-23.732365,-64.989017,29.3808
1785343630.8639,09:47:10.863,17,false,0.579308,-0.300537,0.624268,0.429382,0.979995,-0.203616,-0.027344,-23.736789,-64.89036,29.313858
1785343630.8952,09:47:10.895,18,false,0.579791,-0.300232,0.624512,0.428589,0.971695,-0.18555,-0.03711,-23.800586,-64.891291,29.418102
1785343630.9266,09:47:10.926,19,false,0.580227,-0.300354,0.624634,0.427734,0.988296,-0.180667,-0.044434,-23.932773,-64.922037,29.437152
1785343630.9579,09:47:10.957,20,false,0.580402,-0.300537,0.624634,0.427368,0.977066,-0.19678,-0.03125,-23.902203,-64.845031,29.529067
1785343630.9893,09:47:10.989,21,false,0.580706,-0.300598,0.624573,0.427002,0.994156,-0.208499,-0.033692,-23.79992,-64.850495,29.671605
1785343631.0206,09:47:11.020,22,false,0.580883,-0.300476,0.624634,0.426758,1.001968,-0.176761,-0.033692,-23.902266,-64.885321,29.79989
1785343631.0519,09:47:11.051,23,false,0.580862,-0.300354,0.624878,0.426514,0.98732,-0.195315,-0.04004,-23.799977,-64.767125,29.855531
1785343631.0831,09:47:11.083,24,false,0.581047,-0.300171,0.624878,0.426392,0.985855,-0.209476,-0.03418,-23.872409,-64.795334,29.920561
1785343631.1144,09:47:11.114,25,false,0.581447,-0.300049,0.624939,0.425842,0.995132,-0.173831,-0.041993,-23.862829,-64.745952,29.874412
1785343631.1456,09:47:11.145,26,false,0.58151,-0.300354,0.624817,0.42572,0.984878,-0.175784,-0.03125,-23.958884,-64.761324,29.847831
1785343631.1767,09:47:11.176,27,false,0.58182,-0.300354,0.624695,0.425476,0.986343,-0.190433,-0.026856,-24.120102,-64.730297,29.794001
1785343631.2078,09:47:11.207,28,false,0.581997,-0.300903,0.62439,0.425293,0.983902,-0.198245,-0.038575,-24.085753,-64.687419,29.865185
1785343631.239,09:47:11.239,29,false,0.582405,-0.30127,0.624207,0.424744,0.98146,-0.166506,-0.038087,-24.129608,-64.723598,29.959158
1785343631.2701,09:47:11.270,30,false,0.582598,-0.301575,0.623962,0.424622,0.991714,-0.182132,-0.03125,-24.154123,-64.741206,29.95401
1785343631.3015,09:47:11.301,31,false,0.582621,-0.302246,0.623657,0.424561,1.003433,-0.176761,-0.026856,-24.221048,-64.757052,29.91947
1785343631.3326,09:47:11.332,0,false,0.582596,-0.302551,0.623657,0.424377,1.000015,-0.169436,-0.038575,-24.071928,-64.711499,29.948199
1785343631.3637,09:47:11.363,1,false,0.582535,-0.302795,0.623596,0.424377,1.002457,-0.178714,-0.039551,-24.087257,-64.74527,30.003963
1785343631.3949,09:47:11.394,2,false,0.582503,-0.302856,0.623596,0.424377,0.993668,-0.194827,-0.029297,-23.966469,-64.76071,29.889658
1785343631.426,09:47:11.426,3,false,0.582567,-0.30304,0.623779,0.423889,0.984878,-0.184085,-0.029297,-23.932529,-64.625068,29.936322
1785343631.4573,09:47:11.457,4,false,0.582616,-0.303162,0.62384,0.423645,0.988785,-0.175784,-0.034668,-23.976752,-64.727298,29.90355
1785343631.4887,09:47:11.488,5,false,0.582457,-0.303467,0.62384,0.423645,0.983413,-0.169924,-0.020996,-24.076369,-64.714627,29.859102
1785343631.52,09:47:11.520,6,false,0.58221,-0.304016,0.623596,0.42395,1.000015,-0.170413,-0.041993,-24.121162,-64.643409,29.714422
1785343631.5514,09:47:11.551,7,false,0.582133,-0.304077,0.623596,0.424011,1.002457,-0.170901,-0.038575,-24.071753,-64.669035,29.778609
1785343631.5827,09:47:11.582,8,false,0.581873,-0.304199,0.623779,0.424011,0.992203,-0.171878,-0.030274,-24.221684,-64.692099,29.731701
1785343631.6141,09:47:11.614,9,false,0.58158,-0.304504,0.623779,0.424194,0.992691,-0.18555,-0.025879,-24.281853,-64.593225,29.794161
1785343631.6454,09:47:11.645,10,false,0.581385,-0.304626,0.623901,0.424194,0.992691,-0.194827,-0.023926,-24.171514,-64.504239,29.805513
1785343631.6767,09:47:11.676,11,false,0.5817,-0.304871,0.623779,0.423767,0.997574,-0.180667,-0.033692,-24.176885,-64.558736,29.845638
1785343631.7081,09:47:11.708,12,false,0.582211,-0.304993,0.623657,0.423157,0.994156,-0.175784,-0.024903,-24.166765,-64.39843,29.851842
1785343631.7394,09:47:11.739,13,false,0.582288,-0.306091,0.623047,0.423157,0.995132,-0.170413,-0.032715,-24.112795,-64.448554,29.797611
1785343631.7708,09:47:11.770,14,false,0.582732,-0.306458,0.622742,0.422729,0.995132,-0.169924,-0.03711,-24.183853,-64.269358,29.808618
1785343631.8021,09:47:11.802,15,false,0.582906,-0.307251,0.622437,0.422363,0.997086,-0.1626,-0.035645,-24.18799,-64.123036,29.728802
1785343631.8332,09:47:11.833,16,false,0.582925,-0.308289,0.62207,0.422119,0.990738,-0.177737,-0.032715,-24.206667,-64.275469,29.716782
1785343631.8644,09:47:11.864,17,false,0.582798,-0.309021,0.621826,0.422119,0.994644,-0.158206,-0.028809,-24.163661,-64.173397,29.691011
1785343631.8955,09:47:11.895,18,false,0.583063,-0.309021,0.621826,0.421753,0.993668,-0.163088,-0.028809,-24.124956,-64.156301,29.742586
1785343631.9269,09:47:11.926,19,false,0.58314,-0.30896,0.621826,0.421692,0.989761,-0.16846,-0.032227,-24.120029,-64.230638,29.803957
1785343631.958,09:47:11.958,20,false,0.583732,-0.308472,0.622009,0.420959,1.00734,-0.162112,-0.034668,-24.130548,-64.088188,29.799376
1785343631.9892,09:47:11.989,21,false,0.583775,-0.308228,0.622131,0.420898,0.981949,-0.150393,-0.019043,-24.065247,-64.214198,29.765345
1785343632.0203,09:47:12.020,22,false,0.583403,-0.30719,0.622498,0.421631,0.983902,-0.160159,-0.032715,-23.976567,-64.237884,29.749671
1785343632.0514,09:47:12.051,23,false,0.582744,-0.306519,0.622742,0.422668,0.991226,-0.184573,-0.023926,-23.896756,-64.184432,29.705657
1785343632.0826,09:47:12.082,24,false,0.582327,-0.306091,0.622803,0.423462,0.980972,-0.187991,-0.035157,-23.914649,-64.211094,29.666044
1785343632.1137,09:47:12.113,25,false,0.582115,-0.306152,0.622681,0.423889,0.995621,-0.192874,-0.03418,-23.930753,-64.160321,29.690208
1785343632.1448,09:47:12.144,26,false,0.582114,-0.30603,0.622742,0.423889,0.979507,-0.198245,-0.027832,-23.88543,-64.204349,29.697002
1785343632.176,09:47:12.176,27,false,0.582351,-0.306824,0.622253,0.423706,0.993179,-0.190921,-0.030762,-23.994179,-64.109389,29.598439
1785343632.2073,09:47:12.207,28,false,0.582519,-0.308167,0.621765,0.423218,0.989273,-0.131838,-0.009277,-24.047191,-64.158509,29.53964
1785343632.2387,09:47:12.238,29,false,0.582326,-0.311646,0.619751,0.423889,0.976577,-0.101076,0.001465,-24.24444,-64.277487,29.561491
1785343632.27,09:47:12.270,30,false,0.580533,-0.322876,0.612366,0.42865,0.999527,0.049805,-0.006836,-24.257472,-64.190167,29.536295
1785343632.3013,09:47:12.301,31,false,0.576966,-0.337341,0.601807,0.437195,1.005386,0.021973,-0.042481,-24.284155,-64.096625,29.453803
1785343632.3327,09:47:12.332,0,false,0.57117,-0.355164,0.587463,0.450012,0.980484,0.05127,-0.055177,-24.412847,-63.773176,29.289837
1785343632.364,09:47:12.364,1,false,0.562448,-0.378174,0.567749,0.467224,1.000992,0.032715,-0.109865,-24.394084,-63.422257,29.022637
1785343632.3954,09:47:12.395,2,false,0.544432,-0.414917,0.532227,0.498169,0.994644,-0.028321,-0.160647,-24.362244,-62.867168,28.617665
1785343632.4267,09:47:12.426,3,false,0.519346,-0.455811,0.489929,0.531494,1.065934,-0.075685,-0.259281,-24.423311,-62.277865,28.05879
1785343632.4581,09:47:12.458,4,false,0.510282,-0.468323,0.475952,0.541992,1.012711,-0.147463,-0.264164,-24.403503,-61.597953,27.451126
1785343632.4892,09:47:12.489,5,false,0.484734,-0.501892,0.436646,0.567871,1.017105,-0.14551,-0.221683,-24.475398,-60.567326,26.694874
1785343632.5203,09:47:12.520,6,false,0.469486,-0.519775,0.414307,0.581177,1.039567,-0.158206,-0.220218,-24.525149,-59.550038,26.044155
1785343632.5515,09:47:12.551,7,false,0.449795,-0.539001,0.390442,0.595581,1.034684,-0.143557,-0.193362,-24.480203,-58.499894,25.368785
1785343632.5826,09:47:12.582,8,false,0.440236,-0.547668,0.380737,0.601074,1.019547,-0.105959,-0.141604,-24.439751,-57.195872,24.79086
1785343632.6138,09:47:12.613,9,false,0.43325,-0.554443,0.374451,0.603882,1.009293,-0.068849,-0.143069,-24.508021,-56.171791,24.300635
1785343632.6449,09:47:12.644,10,false,0.425955,-0.561768,0.369507,0.605347,0.993179,-0.024414,-0.099123,-24.494695,-55.025811,23.799617
1785343632.676,09:47:12.676,11,false,0.422762,-0.56488,0.368225,0.605469,0.981949,-0.004883,-0.091798,-24.557471,-53.949567,23.453378
1785343632.7072,09:47:12.707,12,false,0.420259,-0.567444,0.367249,0.605408,1.020523,0.019043,-0.084962,-24.763508,-52.980947,23.141762
1785343632.7383,09:47:12.738,13,false,0.416429,-0.571045,0.366028,0.605408,0.996597,0.006836,-0.077638,-24.799402,-52.10919,22.861309
1785343632.7695,09:47:12.769,14,false,0.414545,-0.572998,0.365112,0.605408,0.98732,0.010742,-0.073243,-24.951338,-51.369469,22.6089
1785343632.8006,09:47:12.800,15,false,0.417949,-0.572327,0.368225,0.601807,1.00441,0.018067,-0.061524,-25.028265,-50.613998,22.426594
1785343632.8317,09:47:12.831,16,false,0.41728,-0.573181,0.367554,0.601868,1.016617,0.012207,-0.058595,-25.112453,-49.874258,22.217657
1785343632.8629,09:47:12.862,17,false,0.424862,-0.569519,0.374634,0.595642,1.021012,0.028321,-0.080079,-25.203176,-49.223446,22.253921
1785343632.894,09:47:12.894,18,false,0.439568,-0.560791,0.388733,0.584106,0.997574,0.016114,-0.0542,-25.314735,-48.547993,22.196836
1785343632.9253,09:47:12.925,19,false,0.448996,-0.554504,0.398071,0.576599,0.996109,0.010254,-0.061036,-25.38523,-47.880269,22.055737
1785343632.9567,09:47:12.956,20,false,0.462483,-0.545044,0.411743,0.565247,1.036149,0.048829,-0.068849,-25.329044,-47.413902,21.913793
1785343632.988,09:47:12.988,21,false,0.46668,-0.542236,0.415955,0.561401,1.014664,0.052735,-0.060548,-25.398108,-47.128757,21.845859
1785343633.0194,09:47:13.019,22,false,0.478847,-0.533813,0.427856,0.550171,0.996597,0.045899,-0.069337,-25.445312,-46.707634,21.874442
1785343633.0507,09:47:13.050,23,false,0.486424,-0.528137,0.435181,0.543213,1.004898,0.03418,-0.067384,-25.577519,-46.418346,21.810443
1785343633.0821,09:47:13.082,24,false,0.497049,-0.52002,0.445435,0.53302,1.012711,0.031739,-0.063966,-25.696504,-46.113125,21.857521
1785343633.1134,09:47:13.113,25,false,0.503614,-0.514648,0.452087,0.526428,1.003433,0.029297,-0.064942,-25.848453,-45.763658,21.825122
1785343633.1447,09:47:13.144,26,false,0.510086,-0.509277,0.458496,0.519836,1.003433,0.037598,-0.059571,-25.910438,-45.523906,21.721194
1785343633.1761,09:47:13.176,27,false,0.519176,-0.501831,0.466919,0.510498,1.00734,0.044434,-0.058595,-25.921362,-45.278222,21.493074
1785343633.2074,09:47:13.207,28,false,0.525074,-0.496765,0.472473,0.504272,1.003433,0.046387,-0.062989,-25.931194,-45.236552,21.571889
1785343633.2388,09:47:13.238,29,false,0.530592,-0.492004,0.477417,0.498474,1.017594,0.038575,-0.054688,-25.910136,-45.019603,21.568053
1785343633.2701,09:47:13.270,30,false,0.538313,-0.485168,0.484253,0.490234,1.015152,0.052247,-0.064454,-25.876229,-44.809395,21.549647
1785343633.3014,09:47:13.301,31,false,0.543019,-0.480652,0.488464,0.485291,1.019059,0.041505,-0.072755,-25.935436,-44.66507,21.548036
1785343633.3326,09:47:13.332,0,false,0.55,-0.47345,0.49469,0.478149,0.993668,0.035645,-0.065919,-25.913953,-44.4305,21.441908
1785343633.3637,09:47:13.363,1,false,0.552189,-0.471191,0.496582,0.475891,1.015152,0.030274,-0.069337,-25.969388,-44.368925,21.451071
1785343633.3949,09:47:13.394,2,false,0.558887,-0.463867,0.502625,0.468872,1.013687,0.006348,-0.07715,-26.094048,-44.089201,21.459317
1785343633.426,09:47:13.426,3,false,0.563524,-0.457947,0.507385,0.463989,1.014176,0.003906,-0.067872,-26.131473,-44.061756,21.391969
1785343633.4571,09:47:13.457,4,false,0.571656,-0.447693,0.515015,0.455566,1.024918,0.008301,-0.082033,-26.165156,-43.887518,21.331356
1785343633.4883,09:47:13.488,5,false,0.57747,-0.440552,0.520447,0.448975,1.011246,0.04004,-0.069337,-26.07584,-43.805472,21.456251
1785343633.5196,09:47:13.519,6,false,0.582849,-0.433655,0.525757,0.442505,1.012711,0.047852,-0.064942,-26.100132,-43.926031,21.344348
1785343633.5508,09:47:13.550,7,false,0.590102,-0.423096,0.533386,0.433899,1.001968,0.06006,-0.062989,-26.092087,-43.840135,21.228682
1785343633.5819,09:47:13.581,8,false,0.594302,-0.415527,0.538452,0.429199,1.00148,0.075196,-0.05127,-26.039985,-43.92732,21.244213
1785343633.613,09:47:13.613,9,false,0.599466,-0.403381,0.545593,0.424561,1.000504,0.05127,-0.059571,-26.037955,-44.095509,21.243237
1785343633.6442,09:47:13.644,10,false,0.602268,-0.393433,0.551025,0.422913,0.99855,0.03711,-0.073243,-26.066036,-44.231926,21.257313
1785343633.6753,09:47:13.675,11,false,0.603849,-0.381653,0.557495,0.422974,1.034195,0.03711,-0.102052,-26.091308,-44.459378,21.195212
1785343633.7067,09:47:13.706,12,false,0.602677,-0.362732,0.568726,0.426331,0.99855,-0.098634,-0.125978,-25.964515,-44.963162,21.034644
1785343633.738,09:47:13.738,13,false,0.601899,-0.351257,0.575928,0.427368,0.988785,-0.163088,-0.11426,-25.745724,-45.461429,21.084532
1785343633.7693,09:47:13.769,14,false,0.603737,-0.341797,0.581787,0.4245,1.006363,-0.307622,-0.137209,-25.758166,-46.044454,21.144386
1785343633.8007,09:47:13.800,15,false,0.611896,-0.326904,0.591003,0.411621,1.030777,-0.297368,-0.147463,-25.739457,-46.643945,21.06367
1785343633.832,09:47:13.832,16,false,0.619725,-0.316101,0.598572,0.397156,1.020035,-0.225589,-0.119142,-25.662803,-47.123672,21.035887
1785343633.8634,09:47:13.863,17,false,0.632351,-0.300171,0.610291,0.370911,0.988785,-0.087404,-0.088869,-25.683537,-47.540472,21.145467
1785343633.8947,09:47:13.894,18,false,0.63686,-0.294556,0.614075,0.361328,0.977066,0.02295,-0.061524,-25.717152,-48.080085,21.28895
1785343633.926,09:47:13.926,19,false,0.648754,-0.28009,0.622681,0.33606,0.955581,0.10547,-0.050294,-25.732451,-48.550783,21.447993
1785343633.9574,09:47:13.957,20,false,0.65606,-0.270691,0.626526,0.322144,0.962905,0.084474,-0.047364,-25.82099,-49.04918,21.695808
1785343633.9887,09:47:13.988,21,false,0.66489,-0.257141,0.630066,0.307922,0.991714,0.031739,-0.068849,-25.795998,-49.572506,21.873981
1785343634.0199,09:47:14.019,22,false,0.669997,-0.24823,0.632141,0.299805,1.007828,-0.019532,-0.089357,-25.713689,-50.163131,22.049289
1785343634.051,09:47:14.051,23,false,0.673963,-0.240173,0.634155,0.293152,1.011734,-0.032715,-0.087404,-25.714381,-50.619924,22.281837
1785343634.0821,09:47:14.082,24,false,0.678197,-0.22821,0.637695,0.285156,1.042985,-0.001953,-0.083009,-25.655188,-51.165622,22.446268
1785343634.1133,09:47:14.113,25,false,0.681293,-0.217712,0.641235,0.277954,1.019547,0.000488,-0.077638,-25.66173,-51.776381,22.683979
1785343634.1444,09:47:14.144,26,false,0.684265,-0.207397,0.644409,0.271118,1.010758,-0.026856,-0.086915,-25.547987,-52.326064,23.077364
1785343634.1758,09:47:14.175,27,false,0.688109,-0.19519,0.647461,0.263062,1.006851,-0.045411,-0.078126,-25.595157,-53.015179,23.281873
1785343634.2069,09:47:14.206,28,false,0.690238,-0.188904,0.648804,0.258728,1.013687,-0.046387,-0.087892,-25.682471,-53.560613,23.570608
1785343634.2381,09:47:14.238,29,false,0.692749,-0.181946,0.65033,0.253113,1.005875,-0.049317,-0.083497,-25.596562,-54.096365,23.890285
1785343634.2692,09:47:14.269,30,false,0.693391,-0.180115,0.650818,0.251404,1.012711,-0.044434,-0.088869,-25.638874,-54.60845,24.118179
1785343634.3003,09:47:14.300,31,false,0.690718,-0.185608,0.649536,0.257996,1.003433,-0.027832,-0.082521,-25.572278,-55.099234,24.368145
1785343634.3315,09:47:14.331,0,false,0.687611,-0.190186,0.648682,0.265015,1.002457,-0.03125,-0.085939,-25.512342,-55.585801,24.593114
1785343634.3626,09:47:14.362,1,false,0.685003,-0.192932,0.648132,0.271057,0.993668,-0.049317,-0.080079,-25.323815,-56.068573,24.81054
1785343634.3937,09:47:14.393,2,false,0.679061,-0.200012,0.64624,0.285034,0.999039,-0.049317,-0.076661,-25.34854,-56.47316,25.110901
1785343634.4251,09:47:14.425,3,false,0.677144,-0.201965,0.645691,0.289429,0.989273,-0.104005,-0.070802,-25.221255,-56.717657,25.381225
1785343634.4564,09:47:14.456,4,false,0.673338,-0.205017,0.644653,0.29834,1.002457,-0.130373,-0.073243,-25.256236,-57.162013,25.549748
1785343634.4878,09:47:14.487,5,false,0.670081,-0.210022,0.642944,0.305786,1.005875,-0.140139,-0.078614,-25.227904,-57.502117,25.716372
1785343634.5191,09:47:14.519,6,false,0.665616,-0.218018,0.640076,0.315796,1.00441,-0.134279,-0.091798,-25.187451,-57.718488,25.821473
1785343634.5505,09:47:14.550,7,false,0.662695,-0.223816,0.638062,0.321899,1.007828,-0.118654,-0.083497,-25.031413,-57.913222,25.841294
1785343634.5818,09:47:14.581,8,false,0.659511,-0.229675,0.63623,0.327881,1.013199,-0.112306,-0.076173,-25.010609,-58.133344,25.96381
1785343634.6131,09:47:14.613,9,false,0.654811,-0.238037,0.633545,0.336426,0.996597,-0.108888,-0.084474,-24.917117,-58.480992,25.999305
1785343634.6445,09:47:14.644,10,false,0.651566,-0.243347,0.631897,0.34198,0.99855,-0.103517,-0.072755,-24.862881,-58.674245,26.001343
1785343634.6758,09:47:14.675,11,false,0.64851,-0.247681,0.630493,0.347229,0.993668,-0.124514,-0.080079,-25.008469,-58.893034,26.107854
1785343634.7072,09:47:14.707,12,false,0.643891,-0.254089,0.628357,0.35498,0.981949,-0.115236,-0.079103,-25.094637,-59.119852,26.128945
1785343634.7385,09:47:14.738,13,false,0.640983,-0.258118,0.627014,0.35968,1.00441,-0.103517,-0.057618,-25.067511,-59.323988,26.267557
1785343634.7696,09:47:14.769,14,false,0.636678,-0.263489,0.625061,0.36676,1.011734,-0.082521,-0.064454,-25.222544,-59.50771,26.422216
1785343634.801,09:47:14.801,15,false,0.634988,-0.265198,0.624512,0.369385,1.018082,-0.05713,-0.071778,-25.107858,-59.67306,26.561409
1785343634.8321,09:47:14.832,16,false,0.628454,-0.270691,0.622314,0.380127,0.996109,-0.058595,-0.059571,-25.109317,-59.791968,26.507236
1785343634.8633,09:47:14.863,17,false,0.623145,-0.273926,0.620422,0.389526,0.989761,-0.076661,-0.066407,-25.020908,-59.869077,26.473435
1785343634.8944,09:47:14.894,18,false,0.615049,-0.278076,0.616516,0.405334,0.965835,-0.125978,-0.064454,-24.971247,-60.013244,26.547691
1785343634.9255,09:47:14.925,19,false,0.610116,-0.280457,0.613464,0.415649,0.982925,-0.165042,-0.083497,-24.836829,-60.352348,26.599567
1785343634.9569,09:47:14.956,20,false,0.60566,-0.282532,0.610352,0.425232,0.980972,-0.185061,-0.085451,-24.670992,-60.657542,26.466809
1785343634.988,09:47:14.988,21,false,0.599392,-0.284424,0.606628,0.437988,0.993179,-0.19971,-0.110842,-24.68623,-60.782679,26.242651
1785343635.0192,09:47:15.019,22,false,0.595453,-0.285034,0.604797,0.445435,0.978531,-0.210941,-0.112795,-24.56536,-61.104655,26.100723
1785343635.0503,09:47:15.050,23,false,0.590073,-0.285767,0.602356,0.455322,0.974136,-0.224125,-0.115236,-24.516393,-61.259849,25.987942
1785343635.0814,09:47:15.081,24,false,0.587109,-0.285706,0.601196,0.460693,0.969253,-0.251957,-0.1084,-24.203153,-61.399524,25.811671
1785343635.1126,09:47:15.112,25,false,0.584477,-0.285767,0.600159,0.465332,0.982437,-0.244144,-0.108888,-24.070775,-61.525231,25.548349
1785343635.1437,09:47:15.143,26,false,0.581422,-0.286438,0.598328,0.471069,0.977066,-0.258793,-0.117189,-23.89182,-61.578552,25.356221
1785343635.1751,09:47:15.175,27,false,0.579918,-0.286743,0.597229,0.474121,0.976089,-0.243168,-0.118166,-23.745714,-61.761126,25.213214
1785343635.2064,09:47:15.206,28,false,0.578559,-0.286865,0.596252,0.476929,0.980484,-0.25684,-0.129397,-23.688988,-61.701134,25.009738
1785343635.2377,09:47:15.237,29,false,0.577046,-0.286621,0.595337,0.480042,0.978042,-0.255375,-0.127932,-23.518304,-61.856496,24.766794
1785343635.2691,09:47:15.269,30,false,0.576204,-0.286438,0.59491,0.481689,0.973648,-0.286137,-0.121584,-23.379642,-61.966413,24.60796
1785343635.3004,09:47:15.300,31,false,0.575572,-0.286255,0.594421,0.483154,0.972671,-0.282719,-0.136721,-23.195031,-62.020478,24.375286
1785343635.3318,09:47:15.331,0,false,0.575367,-0.286255,0.594421,0.483398,0.965347,-0.27686,-0.117678,-23.103651,-62.218674,24.195788
1785343635.3631,09:47:15.363,1,false,0.575737,-0.285645,0.594604,0.483093,0.961929,-0.262211,-0.129885,-22.961592,-62.292374,24.064147
1785343635.3945,09:47:15.394,2,false,0.576011,-0.284973,0.59491,0.482788,0.969253,-0.271489,-0.129885,-22.803833,-62.433473,23.766224
1785343635.4258,09:47:15.425,3,false,0.576337,-0.284424,0.595154,0.482422,0.969741,-0.260258,-0.12842,-22.661849,-62.455785,23.60277
1785343635.4571,09:47:15.457,4,false,0.576488,-0.283997,0.595459,0.482117,0.960464,-0.264652,-0.129397,-22.399479,-62.535682,23.500523
1785343635.4885,09:47:15.488,5,false,0.576653,-0.283691,0.595642,0.481873,0.96437,-0.258305,-0.127443,-22.372699,-62.697312,23.468316
1785343635.5198,09:47:15.519,6,false,0.57734,-0.283081,0.596252,0.480652,0.963882,-0.247074,-0.128908,-22.258875,-62.633425,23.349607
1785343635.5512,09:47:15.551,7,false,0.577444,-0.283081,0.596497,0.480225,0.985367,-0.244144,-0.123537,-22.26111,-62.800234,23.272676
1785343635.5823,09:47:15.582,8,false,0.577647,-0.282776,0.596985,0.479553,0.971206,-0.249027,-0.120607,-22.188352,-62.800824,23.278208
1785343635.6135,09:47:15.613,9,false,0.57791,-0.282654,0.597473,0.478699,0.975113,-0.240726,-0.121584,-22.12287,-62.950893,23.283186
1785343635.6448,09:47:15.644,10,false,0.578265,-0.282471,0.5979,0.477844,0.972671,-0.249027,-0.118654,-22.004121,-62.891556,23.347482
1785343635.676,09:47:15.676,11,false,0.578691,-0.281982,0.59845,0.476929,0.975601,-0.246586,-0.123537,-22.1066,-62.927875,23.240856
1785343635.7071,09:47:15.707,12,false,0.578728,-0.281982,0.598511,0.476807,0.977066,-0.245609,-0.125978,-22.124063,-62.840932,23.174801
1785343635.7382,09:47:15.738,13,false,0.578868,-0.282104,0.598755,0.476257,0.974136,-0.235843,-0.103517,-21.930425,-62.822498,23.145259
1785343635.7694,09:47:15.769,14,false,0.579168,-0.282104,0.598999,0.475586,0.984878,-0.237308,-0.117678,-21.980459,-62.776,23.043901
1785343635.8005,09:47:15.800,15,false,0.579229,-0.282104,0.599182,0.475281,0.980484,-0.244633,-0.127932,-21.995581,-62.838829,22.982587
1785343635.8316,09:47:15.831,16,false,0.579456,-0.28186,0.599609,0.474609,0.974136,-0.251469,-0.115724,-22.039099,-62.895375,23.076943
1785343635.8628,09:47:15.862,17,false,0.579655,-0.281677,0.599792,0.474243,0.973159,-0.23682,-0.118166,-21.913773,-62.931312,23.102048
1785343635.8939,09:47:15.893,18,false,0.58009,-0.281494,0.600037,0.473511,0.973159,-0.242191,-0.110842,-21.920611,-62.844025,23.333996
1785343635.9251,09:47:15.925,19,false,0.58055,-0.281311,0.600159,0.4729,0.962417,-0.233402,-0.121096,-22.091257,-62.85519,23.243673
1785343635.9562,09:47:15.956,20,false,0.580804,-0.281189,0.600403,0.472351,0.978042,-0.237308,-0.113771,-22.050438,-62.835331,23.371736
1785343635.9875,09:47:15.987,21,false,0.581051,-0.281006,0.600586,0.471924,0.983413,-0.225589,-0.116701,-21.998747,-62.832411,23.367361
1785343636.0189,09:47:16.018,22,false,0.580659,-0.281006,0.601013,0.471863,0.979995,-0.216312,-0.101564,-21.922318,-62.725106,23.258748
1785343636.0502,09:47:16.050,23,false,0.578892,-0.279663,0.602478,0.472961,0.982925,-0.179202,-0.115236,-21.928301,-62.807978,23.235764
1785343636.0816,09:47:16.081,24,false,0.576207,-0.276917,0.604492,0.475281,0.982925,-0.183108,-0.107424,-22.098178,-62.897517,23.304803
1785343636.1129,09:47:16.112,25,false,0.572061,-0.271484,0.607849,0.479126,0.958511,-0.241215,-0.098634,-22.131436,-62.903333,23.396845
1785343636.1442,09:47:16.144,26,false,0.564594,-0.260803,0.613953,0.486084,0.931167,-0.349126,-0.103517,-22.131461,-63.028197,23.449775
1785343636.1756,09:47:16.175,27,false,0.561495,-0.256592,0.616577,0.488586,0.920912,-0.416022,-0.097658,-22.056714,-63.290114,23.557227
1785343636.2069,09:47:16.206,28,false,0.562616,-0.259216,0.615906,0.486755,0.959976,-0.45655,-0.113771,-21.869812,-63.555747,23.624027
1785343636.2383,09:47:16.238,29,false,0.564032,-0.261536,0.614929,0.485107,0.952651,-0.379889,-0.095216,-21.731507,-63.80977,23.624331
1785343636.2694,09:47:16.269,30,false,0.569425,-0.270508,0.610657,0.479248,0.952651,-0.305669,-0.091798,-21.711709,-63.933714,23.594697
1785343636.3005,09:47:16.300,31,false,0.573043,-0.276978,0.607178,0.475647,0.959487,-0.257816,-0.099611,-21.768661,-63.865818,23.597935
1785343636.3317,09:47:16.331,0,false,0.578017,-0.285156,0.602417,0.470825,0.956069,-0.216312,-0.1084,-21.804963,-63.714988,23.555987
1785343636.3628,09:47:16.362,1,false,0.580624,-0.289551,0.599854,0.468201,0.979019,-0.174319,-0.109377,-21.987174,-63.579241,23.518233
1785343636.394,09:47:16.394,2,false,0.582296,-0.293152,0.598145,0.466064,0.988785,-0.154788,-0.104982,-22.06144,-63.397253,23.603886
1785343636.4251,09:47:16.425,3,false,0.582179,-0.297241,0.596619,0.465576,0.962417,-0.152346,-0.104005,-22.008649,-63.233464,23.576297
1785343636.4562,09:47:16.456,4,false,0.581499,-0.299438,0.595276,0.466736,0.9673,-0.185061,-0.097658,-22.12563,-63.026239,23.357066
1785343636.4874,09:47:16.487,5,false,0.580317,-0.304199,0.591797,0.469543,0.980972,-0.216312,-0.103029,-22.230912,-62.884598,23.309298
1785343636.5185,09:47:16.518,6,false,0.579497,-0.310852,0.587036,0.472168,1.002945,-0.184085,-0.124025,-22.280805,-62.697305,23.236398
1785343636.5497,09:47:16.549,7,false,0.578277,-0.321045,0.579651,0.475952,0.966812,-0.160647,-0.10547,-22.265893,-62.439019,23.081065
1785343636.5808,09:47:16.580,8,false,0.576052,-0.341003,0.563049,0.484619,1.019059,-0.121096,-0.163088,-22.446872,-62.1617,22.986127
1785343636.6119,09:47:16.611,9,false,0.571827,-0.358521,0.548767,0.493286,1.033707,-0.126955,-0.188968,-22.549938,-61.672851,22.766098
1785343636.6431,09:47:16.643,10,false,0.567603,-0.375732,0.534485,0.500977,1.002945,-0.087404,-0.179202,-22.73242,-61.143164,22.553119
1785343636.6742,09:47:16.674,11,false,0.556919,-0.405884,0.509949,0.514832,1.02443,-0.047364,-0.190921,-22.836839,-60.2926,22.196945
1785343636.7055,09:47:16.705,12,false,0.547727,-0.425842,0.493408,0.524597,1.008804,-0.052247,-0.204593,-23.110262,-59.497185,21.831527
1785343636.7369,09:47:16.736,13,false,0.533904,-0.452576,0.470154,0.537659,0.995621,-0.072755,-0.186038,-23.102128,-58.586911,21.547512
1785343636.7682,09:47:16.768,14,false,0.529376,-0.460571,0.463257,0.541321,1.025895,-0.091798,-0.187503,-23.169576,-57.543357,21.187222
1785343636.7996,09:47:16.799,15,false,0.516658,-0.480408,0.446899,0.550049,0.98732,-0.079591,-0.156741,-23.290094,-56.589204,20.922776
1785343636.8309,09:47:16.830,16,false,0.510039,-0.489868,0.439575,0.553772,0.975601,-0.084962,-0.146975,-23.458376,-55.491205,20.699728
1785343636.8623,09:47:16.862,17,false,0.502876,-0.500305,0.432312,0.556702,1.01564,-0.038087,-0.140139,-23.684599,-54.428237,20.424216
1785343636.8936,09:47:16.893,18,false,0.499476,-0.50531,0.429321,0.557556,0.985855,-0.026368,-0.114748,-23.798477,-53.381843,20.236071
1785343636.9249,09:47:16.924,19,false,0.497364,-0.50885,0.427429,0.557678,0.991226,-0.021973,-0.095216,-23.915921,-52.380273,20.156463
1785343636.9563,09:47:16.956,20,false,0.495923,-0.513,0.425171,0.556885,1.00734,0.009277,-0.106447,-24.02162,-51.523721,20.159586
1785343636.9876,09:47:16.987,21,false,0.495447,-0.515442,0.423889,0.55603,1.002945,0.016602,-0.09131,-23.982165,-50.722917,20.10258
1785343637.019,09:47:17.019,22,false,0.499047,-0.514465,0.42627,0.55188,1.005875,0.032227,-0.100099,-24.096194,-49.942377,20.021368
1785343637.0503,09:47:17.050,23,false,0.507172,-0.510132,0.432739,0.543396,1.008316,0.05127,-0.104005,-24.19882,-49.2698,19.948277
1785343637.0815,09:47:17.081,24,false,0.513698,-0.50592,0.438477,0.53656,1.011734,0.043946,-0.092775,-24.350999,-48.604665,19.972218
1785343637.1126,09:47:17.112,25,false,0.521083,-0.500671,0.446167,0.527954,1.01564,0.042969,-0.09424,-24.398237,-47.961182,20.038626
1785343637.1438,09:47:17.143,26,false,0.526494,-0.496399,0.452087,0.521545,0.994156,0.044923,-0.086427,-24.545428,-47.411954,20.023624
1785343637.1749,09:47:17.174,27,false,0.531641,-0.492493,0.457581,0.515198,0.996109,0.047852,-0.078614,-24.692853,-47.007373,19.995169
1785343637.206,09:47:17.206,28,false,0.539162,-0.486694,0.465271,0.50592,1.014176,0.053712,-0.085939,-24.631136,-46.598388,20.059282
1785343637.2372,09:47:17.237,29,false,0.543777,-0.482727,0.470276,0.500122,1.00734,0.06836,-0.085939,-24.695222,-46.245256,20.072123
1785343637.2683,09:47:17.268,30,false,0.550043,-0.477173,0.477295,0.491882,1.003433,0.06006,-0.077638,-24.79776,-45.733037,20.038817
1785343637.2994,09:47:17.299,31,false,0.552002,-0.475525,0.479309,0.489319,1.004898,0.059083,-0.081544,-24.964814,-45.316901,20.11352
1785343637.3306,09:47:17.330,0,false,0.557388,-0.471008,0.484802,0.482117,1.010758,0.048341,-0.081544,-25.02544,-45.002194,20.061121
1785343637.3617,09:47:17.361,1,false,0.560741,-0.467896,0.488586,0.477417,1.009781,0.041505,-0.080568,-25.080003,-44.793727,20.193408
1785343637.3929,09:47:17.392,2,false,0.565546,-0.463379,0.493896,0.470642,1.017105,0.052247,-0.082033,-25.159017,-44.710784,20.20779
1785343637.424,09:47:17.424,3,false,0.568838,-0.460327,0.49707,0.466309,0.997574,0.052247,-0.080568,-25.155361,-44.561366,20.250641
1785343637.4551,09:47:17.455,4,false,0.57219,-0.457031,0.500244,0.462036,1.006363,0.056153,-0.082521,-25.301608,-44.396982,20.334068
1785343637.4865,09:47:17.486,5,false,0.576839,-0.452271,0.5047,0.456055,0.984878,0.075685,-0.083986,-25.343508,-44.144359,20.379246
1785343637.5178,09:47:17.517,6,false,0.579948,-0.449463,0.507263,0.452026,0.996597,0.054688,-0.081056,-25.411126,-43.812322,20.389997
1785343637.5492,09:47:17.549,7,false,0.582698,-0.447021,0.50946,0.448425,0.998062,0.058106,-0.083009,-25.471982,-43.692934,20.399674
1785343637.5805,09:47:17.580,8,false,0.58716,-0.442932,0.512756,0.442871,1.008316,0.071778,-0.087892,-25.511798,-43.540624,20.423337
1785343637.6118,09:47:17.611,9,false,0.589775,-0.440491,0.514587,0.439697,1.018082,0.064942,-0.080079,-25.562587,-43.34373,20.504448
1785343637.6432,09:47:17.643,10,false,0.593495,-0.436951,0.517212,0.43512,0.99855,0.065919,-0.096681,-25.578389,-43.121663,20.427911
1785343637.6745,09:47:17.674,11,false,0.594612,-0.43573,0.518188,0.433655,1.003433,0.050782,-0.098146,-25.592611,-42.891896,20.463704
1785343637.7059,09:47:17.705,12,false,0.597878,-0.432129,0.520996,0.429382,1.006851,0.062501,-0.089357,-25.515687,-42.774828,20.630502
1785343637.7372,09:47:17.737,13,false,0.599914,-0.429871,0.522827,0.426575,1.008316,0.067384,-0.086427,-25.595995,-42.639559,20.631082
1785343637.7686,09:47:17.768,14,false,0.60244,-0.426941,0.525391,0.422791,1.00734,0.07422,-0.09424,-25.473871,-42.517817,20.676465
1785343637.7999,09:47:17.799,15,false,0.603993,-0.424744,0.527344,0.420349,1.002457,0.058595,-0.076661,-25.483591,-42.363388,20.59768
1785343637.831,09:47:17.831,16,false,0.605466,-0.422729,0.529114,0.41803,1.010758,0.061524,-0.086915,-25.41757,-42.149633,20.601542
1785343637.8622,09:47:17.862,17,false,0.607455,-0.419983,0.531799,0.41449,1.015152,0.059083,-0.085939,-25.373104,-42.091837,20.694741
1785343637.8933,09:47:17.893,18,false,0.608619,-0.418213,0.533569,0.412292,1.012711,0.065431,-0.072267,-25.362993,-42.069729,20.644035
1785343637.9245,09:47:17.924,19,false,0.610559,-0.415771,0.536072,0.40863,0.999527,0.079103,-0.081544,-25.398754,-42.019924,20.628308
1785343637.9556,09:47:17.955,20,false,0.611858,-0.414063,0.53772,0.40625,1.005386,0.064454,-0.07422,-25.445894,-41.960146,20.673969
1785343637.9867,09:47:17.986,21,false,0.6132,-0.412598,0.539063,0.403931,1.006851,0.070314,-0.067384,-25.383642,-41.936253,20.81974
1785343638.0181,09:47:18.018,22,false,0.615166,-0.4104,0.541138,0.400391,1.00148,0.072267,-0.083009,-25.432292,-41.83998,20.801397
1785343638.0492,09:47:18.049,23,false,0.616559,-0.408752,0.542419,0.398193,1.003433,0.065919,-0.056641,-25.44617,-41.798196,20.889564
1785343638.0804,09:47:18.080,24,false,0.617831,-0.407349,0.543457,0.39624,1.008804,0.083009,-0.064454,-25.339029,-41.790498,20.83433
1785343638.1115,09:47:18.111,25,false,0.619053,-0.406006,0.5448,0.39386,1.021988,0.074708,-0.07715,-25.287464,-41.828432,20.739758
1785343638.1426,09:47:18.142,26,false,0.619854,-0.40509,0.545715,0.392273,1.009781,0.059083,-0.083497,-25.405547,-41.727987,20.744366
1785343638.1738,09:47:18.173,27,false,0.621196,-0.403198,0.547424,0.389709,1.0215,0.073243,-0.081544,-25.466961,-41.712357,20.793375
1785343638.2049,09:47:18.204,28,false,0.621613,-0.402527,0.548096,0.388794,1.011734,0.076173,-0.068849,-25.522233,-41.653427,20.792621
1785343638.2362,09:47:18.236,29,false,0.622771,-0.400452,0.55011,0.38623,0.993668,0.073732,-0.07715,-25.527117,-41.630299,20.821851
1785343638.2676,09:47:18.267,30,false,0.62362,-0.39917,0.551147,0.384705,0.997086,0.067872,-0.076661,-25.546466,-41.549668,20.893019
1785343638.2989,09:47:18.298,31,false,0.624786,-0.397339,0.552551,0.38269,1.000504,0.080079,-0.063478,-25.578834,-41.566823,21.016886
1785343638.3303,09:47:18.330,0,false,0.625399,-0.39624,0.553406,0.381592,0.995621,0.065431,-0.066407,-25.54815,-41.522447,20.933966
1785343638.3616,09:47:18.361,1,false,0.626,-0.395264,0.554138,0.380554,0.999039,0.063478,-0.070314,-25.565396,-41.602139,20.919153
1785343638.393,09:47:18.393,2,false,0.626832,-0.393921,0.555115,0.37915,0.997574,0.061524,-0.066896,-25.565963,-41.539278,20.935729
1785343638.4243,09:47:18.424,3,false,0.627504,-0.3927,0.555969,0.378052,0.994644,0.067384,-0.065919,-25.566473,-41.407933,20.980556
1785343638.4557,09:47:18.455,4,false,0.628319,-0.391296,0.556702,0.377075,1.006363,0.080079,-0.080079,-25.716471,-41.259816,21.0209
1785343638.487,09:47:18.487,5,false,0.629146,-0.389954,0.557617,0.375732,1.004898,0.067872,-0.073732,-25.672023,-41.216233,20.997394
1785343638.5183,09:47:18.518,6,false,0.629569,-0.38916,0.558228,0.374939,1.010269,0.049805,-0.059571,-25.736697,-41.266731,20.961284
1785343638.5497,09:47:18.549,7,false,0.629972,-0.388367,0.558899,0.374084,1.016129,0.055665,-0.063966,-25.764996,-41.297226,20.913832
1785343638.581,09:47:18.581,8,false,0.63026,-0.387695,0.55957,0.373291,0.997574,0.056153,-0.066407,-25.685788,-41.27981,21.050571
1785343638.6124,09:47:18.612,9,false,0.630638,-0.386902,0.560303,0.372375,1.010758,0.066896,-0.06006,-25.704224,-41.368812,21.054006
1785343638.6435,09:47:18.643,10,false,0.63112,-0.386169,0.560913,0.371399,1.000015,0.080568,-0.061524,-25.720816,-41.329284,21.012235
1785343638.6746,09:47:18.674,11,false,0.631527,-0.385498,0.561401,0.370667,0.996597,0.059083,-0.074708,-25.750703,-41.428292,21.064365
1785343638.7058,09:47:18.705,12,false,0.632203,-0.384583,0.562073,0.369446,1.005875,0.058595,-0.065919,-25.702832,-41.218323,21.006605
1785343638.7369,09:47:18.736,13,false,0.632348,-0.384399,0.562195,0.369202,1.013199,0.076661,-0.082033,-25.659748,-41.17889,20.954621
1785343638.7681,09:47:18.768,14,false,0.632681,-0.383606,0.562683,0.368713,0.993179,0.078614,-0.069825,-25.755557,-41.158353,20.96765
1785343638.7992,09:47:18.799,15,false,0.633069,-0.382751,0.562988,0.368469,1.014664,0.068849,-0.07129,-25.587569,-41.259501,21.009284
1785343638.8303,09:47:18.830,16,false,0.633278,-0.381958,0.563171,0.368652,1.005875,0.062989,-0.073732,-25.585919,-41.230904,21.046755
1785343638.8615,09:47:18.861,17,false,0.633642,-0.381348,0.563416,0.368286,1.002457,0.056153,-0.073732,-25.629296,-41.339751,21.140295
1785343638.8926,09:47:18.892,18,false,0.634002,-0.380737,0.563782,0.367737,1.00734,0.055177,-0.075685,-25.548704,-41.34799,21.164664
1785343638.9237,09:47:18.923,19,false,0.634468,-0.379944,0.56427,0.367004,1.000015,0.060548,-0.072267,-25.595802,-41.400266,21.246413
