Timestamp,Local time,Counter,Interpolated,Accelerometer X,Accelerometer Y,Accelerometer Z,Magnetometer X,Magnetometer Y,Magnetometer Z,Quaternion 0,Quaternion 1,Quaternion 2,Quaternion 3
1784322688.7373,14:11:28.737,12,false,0.593334,-0.304749,0.604248,0.435852,1.005875,-0.144533,-0.086915,-23.137,-63.501442,26.239378
1784322688.7684,14:11:28.768,13,false,0.592304,-0.303589,0.605225,0.436707,1.035172,-0.140627,-0.102052,-23.320591,-63.402004,26.277224
1784322688.7995,14:11:28.799,14,false,0.586086,-0.297424,0.610107,0.442505,1.057633,-0.146975,-0.097658,-23.351239,-63.35737,26.281378
1784322688.8307,14:11:28.830,15,false,0.57873,-0.290222,0.615845,0.448975,0.956558,-0.214847,-0.069825,-23.423684,-63.436831,26.329978
1784322688.8618,14:11:28.861,16,false,0.56699,-0.27771,0.624817,0.459351,0.897475,-0.292485,-0.041993,-23.384207,-63.702746,26.46344
1784322688.893,14:11:28.893,17,false,0.560452,-0.269958,0.629578,0.465454,0.941909,-0.277348,-0.059083,-23.184185,-64.031793,26.568603
1784322688.9243,14:11:28.924,18,false,0.55434,-0.262817,0.633911,0.470947,0.889662,-0.30811,-0.050782,-23.063982,-64.357842,26.678204
1784322688.9556,14:11:28.955,19,false,0.549115,-0.255432,0.638,0.475586,0.944839,-0.372564,-0.047364,-22.985706,-64.755963,26.851613
1784322688.987,14:11:28.987,20,false,0.547928,-0.253296,0.638916,0.476868,0.972183,-0.354009,-0.056153,-22.705904,-64.979688,26.917959
1784322689.0183,14:11:29.018,21,false,0.547132,-0.251709,0.639404,0.477966,1.014664,-0.388678,-0.055665,-22.424174,-65.330579,27.112254
1784322689.0497,14:11:29.049,22,false,0.544616,-0.247986,0.640991,0.480652,0.958511,-0.428717,-0.041505,-22.155664,-65.601519,27.167489
1784322689.081,14:11:29.081,23,false,0.542112,-0.245361,0.642517,0.482788,0.934096,-0.420905,-0.042969,-22.078497,-65.935088,27.127478
1784322689.1121,14:11:29.112,24,false,0.539622,-0.243469,0.643677,0.484985,0.872084,-0.417975,-0.037598,-21.799693,-66.280161,27.106422
1784322689.1433,14:11:29.143,25,false,0.539209,-0.243164,0.643494,0.48584,0.894545,-0.381842,-0.045899,-21.6684,-66.56082,27.266917
1784322689.1744,14:11:29.174,26,false,0.539373,-0.241821,0.643494,0.486328,0.912123,-0.374517,-0.073732,-21.490421,-66.828367,27.471178
1784322689.2055,14:11:29.205,27,false,0.539079,-0.240601,0.643921,0.486694,0.958999,-0.34522,-0.077638,-21.390055,-67.084112,27.520429
1784322689.2367,14:11:29.236,28,false,0.539083,-0.240601,0.64447,0.485962,0.984878,-0.346197,-0.069337,-21.165141,-67.344191,27.445124
1784322689.2678,14:11:29.267,29,false,0.538996,-0.240845,0.646057,0.483826,0.982925,-0.326665,-0.058595,-21.097303,-67.443678,27.49698
1784322689.2992,14:11:29.299,30,false,0.539085,-0.240845,0.646667,0.48291,0.95314,-0.307622,-0.05713,-21.051203,-67.697708,27.603465
1784322689.3305,14:11:29.330,31,false,0.54015,-0.241272,0.648071,0.479614,0.957046,-0.318364,-0.043458,-20.949898,-67.731934,27.609579
1784322689.3618,14:11:29.361,0,false,0.541344,-0.24176,0.64856,0.477356,0.926284,-0.319341,-0.041993,-20.754046,-67.822555,27.749667
1784322689.3932,14:11:29.393,1,false,0.543806,-0.241882,0.64856,0.474487,0.934096,-0.312993,-0.041016,-20.742271,-67.93402,27.726207
1784322689.4245,14:11:29.424,2,false,0.545622,-0.241882,0.648193,0.4729,0.914076,-0.327642,-0.053223,-20.731674,-67.95957,27.764908
1784322689.4556,14:11:29.455,3,false,0.547505,-0.242493,0.6474,0.471497,0.939467,-0.317876,-0.052247,-20.587552,-67.997518,27.710017
1784322689.4868,14:11:29.486,4,false,0.550082,-0.244202,0.645813,0.469788,0.947768,-0.331548,-0.052247,-20.607381,-68.106441,27.735383
1784322689.5179,14:11:29.517,5,false,0.551182,-0.245239,0.644836,0.469299,0.944839,-0.355962,-0.045411,-20.670088,-68.054933,27.728306
1784322689.5491,14:11:29.549,6,false,0.552219,-0.246765,0.643677,0.468872,0.966812,-0.367681,-0.047852,-20.651756,-68.188023,27.901382
1784322689.5802,14:11:29.580,7,false,0.554862,-0.25116,0.640808,0.467346,0.941421,-0.355962,-0.044434,-20.710026,-68.02368,27.982381
1784322689.6113,14:11:29.611,8,false,0.557224,-0.255798,0.637939,0.465942,0.938003,-0.339849,-0.049805,-20.792376,-67.95054,27.950604
1784322689.6425,14:11:29.642,9,false,0.560777,-0.262939,0.63324,0.464111,0.952651,-0.295415,-0.056153,-20.941261,-67.809946,27.922004
1784322689.6738,14:11:29.673,10,false,0.561862,-0.264709,0.631897,0.463623,0.97023,-0.284672,-0.061036,-21.060304,-67.668457,27.941126
1784322689.7052,14:11:29.705,11,false,0.564405,-0.26886,0.62854,0.462708,0.962905,-0.27686,-0.066407,-21.182396,-67.481301,27.808797
1784322689.7365,14:11:29.736,12,false,0.565374,-0.27063,0.626953,0.462646,0.957046,-0.251957,-0.078126,-21.292278,-67.387631,27.719609
1784322689.7678,14:11:29.767,13,false,0.565723,-0.271423,0.62616,0.46283,0.974136,-0.267582,-0.078614,-21.525757,-67.39305,27.579524
1784322689.7991,14:11:29.799,14,false,0.565102,-0.271179,0.626465,0.463318,0.971695,-0.260746,-0.071778,-21.46672,-67.323158,27.453448
1784322689.8304,14:11:29.830,15,false,0.564118,-0.269714,0.627441,0.46405,0.957534,-0.265629,-0.069825,-21.488355,-67.155579,27.414748
1784322689.8615,14:11:29.861,16,false,0.562132,-0.266663,0.629395,0.465576,0.955093,-0.297368,-0.063478,-21.612503,-67.16925,27.335057
1784322689.8927,14:11:29.892,17,false,0.561187,-0.264404,0.630737,0.466187,0.951186,-0.310552,-0.067872,-21.499929,-67.061923,27.39792
1784322689.9238,14:11:29.923,18,false,0.559839,-0.261658,0.632446,0.467041,0.956558,-0.300298,-0.082521,-21.42852,-67.01019,27.454496
1784322689.955,14:11:29.955,19,false,0.559023,-0.260132,0.633301,0.467712,0.956558,-0.312016,-0.062013,-21.439021,-67.0384,27.505415
1784322689.9861,14:11:29.986,20,false,0.558151,-0.258789,0.634033,0.468506,0.946304,-0.312016,-0.059571,-21.433518,-67.10865,27.461519
1784322690.0172,14:11:30.017,21,false,0.556765,-0.257324,0.634583,0.470215,0.951186,-0.312505,-0.064942,-21.383704,-67.141967,27.496781
1784322690.0486,14:11:30.048,22,false,0.55612,-0.256104,0.634827,0.471313,0.948257,-0.319341,-0.07422,-21.308964,-67.246722,27.453749
1784322690.0799,14:11:30.079,23,false,0.555597,-0.254944,0.635071,0.472229,0.958511,-0.336431,-0.076173,-21.256652,-67.326048,27.549604
1784322690.1112,14:11:30.111,24,false,0.555079,-0.253113,0.63562,0.473083,0.976089,-0.318853,-0.079103,-21.179663,-67.322672,27.561104
1784322690.1426,14:11:30.142,25,false,0.554391,-0.252441,0.636169,0.473511,0.959487,-0.316899,-0.081056,-21.125327,-67.409356,27.5565
1784322690.1739,14:11:30.173,26,false,0.553711,-0.250854,0.637207,0.473755,0.947768,-0.322759,-0.069337,-21.076424,-67.487372,27.612172
1784322690.2053,14:11:30.205,27,false,0.553501,-0.250427,0.637512,0.473816,0.954604,-0.341802,-0.076661,-21.122135,-67.542633,27.722093
1784322690.2365,14:11:30.236,28,false,0.55237,-0.24939,0.638672,0.474121,0.937514,-0.317388,-0.06006,-21.058598,-67.652183,27.82102
1784322690.2676,14:11:30.267,29,false,0.551645,-0.248535,0.639404,0.474426,0.950698,-0.327642,-0.063966,-21.150953,-67.690962,27.880149
1784322690.2988,14:11:30.298,30,false,0.55047,-0.247375,0.640503,0.474915,0.937514,-0.341314,-0.061036,-21.204164,-67.695956,27.903456
1784322690.3299,14:11:30.329,31,false,0.550001,-0.246521,0.641235,0.474915,0.932631,-0.336919,-0.071778,-21.177286,-67.700451,27.924433
1784322690.3611,14:11:30.361,0,false,0.549165,-0.245972,0.641846,0.475342,0.941421,-0.331548,-0.04004,-21.003557,-67.928804,27.763866
1784322690.3922,14:11:30.392,1,false,0.548149,-0.245422,0.642517,0.475891,0.942397,-0.336431,-0.052247,-20.981785,-67.969829,27.783847
1784322690.4235,14:11:30.423,2,false,0.547726,-0.244934,0.642883,0.476135,0.930678,-0.333501,-0.044923,-20.872467,-68.096475,27.786877
1784322690.4549,14:11:30.454,3,false,0.547205,-0.244507,0.643127,0.476624,0.941421,-0.342779,-0.049805,-20.833897,-68.15064,27.804558
1784322690.4862,14:11:30.486,4,false,0.54666,-0.243408,0.643555,0.477234,0.944839,-0.354009,-0.04004,-20.754322,-68.169482,27.89524
1784322690.5175,14:11:30.517,5,false,0.546208,-0.242981,0.643738,0.477722,0.94435,-0.346197,-0.053712,-20.74252,-68.096716,27.961899
1784322690.5489,14:11:30.548,6,false,0.54587,-0.242249,0.644165,0.477905,0.941421,-0.360845,-0.052247,-20.672083,-68.195719,28.006939
1784322690.58,14:11:30.580,7,false,0.545745,-0.242126,0.644226,0.478027,0.942885,-0.363287,-0.049317,-20.623643,-68.195099,28.092337
1784322690.6112,14:11:30.611,8,false,0.545772,-0.242065,0.644226,0.478027,0.938979,-0.347662,-0.056153,-20.699678,-68.299218,28.094425
1784322690.6423,14:11:30.642,9,false,0.545674,-0.242249,0.644104,0.47821,0.941909,-0.353521,-0.054688,-20.633525,-68.45274,28.126213
1784322690.6734,14:11:30.673,10,false,0.545701,-0.242188,0.644104,0.47821,0.948257,-0.361334,-0.05713,-20.66371,-68.381556,28.169775
1784322690.7046,14:11:30.704,11,false,0.545472,-0.242615,0.644409,0.477844,0.943374,-0.361822,-0.059571,-20.690877,-68.362352,28.238889
1784322690.7357,14:11:30.735,12,false,0.545471,-0.242737,0.644409,0.477783,0.938003,-0.358892,-0.047852,-20.715327,-68.419838,28.121645
1784322690.767,14:11:30.767,13,false,0.545291,-0.242859,0.64447,0.477844,0.938003,-0.363775,-0.053223,-20.707425,-68.426714,28.240434
1784322690.7984,14:11:30.798,14,false,0.544601,-0.242554,0.644897,0.47821,0.935561,-0.377447,-0.043946,-20.685358,-68.38804,28.25762
1784322690.8297,14:11:30.829,15,false,0.543426,-0.241882,0.645325,0.479309,0.930678,-0.386236,-0.03711,-20.680453,-68.517726,28.183365
1784322690.8611,14:11:30.861,16,false,0.543176,-0.241638,0.645264,0.479797,0.933608,-0.377447,-0.061036,-20.765761,-68.574628,28.161397
1784322690.8924,14:11:30.892,17,false,0.543402,-0.241577,0.645142,0.479736,0.92726,-0.377935,-0.055177,-20.692999,-68.655748,28.186487
1784322690.9237,14:11:30.923,18,false,0.543897,-0.242004,0.644836,0.47937,0.941909,-0.340337,-0.058106,-20.672376,-68.624079,28.134299
1784322690.9551,14:11:30.955,19,false,0.543924,-0.242798,0.64447,0.479431,0.917983,-0.350591,-0.043458,-20.653814,-68.625484,28.042468
1784322690.9864,14:11:30.986,20,false,0.544221,-0.243347,0.643921,0.479553,0.938491,-0.35108,-0.049317,-20.652063,-68.581887,28.019636
1784322691.0176,14:11:31.017,21,false,0.544867,-0.243835,0.643372,0.479309,0.95314,-0.357427,-0.056641,-20.530856,-68.692189,27.999087
1784322691.0487,14:11:31.048,22,false,0.545043,-0.244446,0.643127,0.479126,0.941909,-0.354498,-0.050782,-20.571308,-68.641922,28.08527
1784322691.0798,14:11:31.079,23,false,0.545812,-0.245361,0.642944,0.478027,0.930678,-0.340337,-0.053223,-20.592761,-68.581727,28.14788
1784322691.111,14:11:31.111,24,false,0.546172,-0.245911,0.6427,0.477661,0.955581,-0.328618,-0.063966,-20.507392,-68.662137,28.129461
1784322691.1421,14:11:31.142,25,false,0.547206,-0.247375,0.642029,0.476624,0.951186,-0.333501,-0.048341,-20.520283,-68.614875,28.068021
1784322691.1734,14:11:31.173,26,false,0.54804,-0.248718,0.641296,0.475952,0.937026,-0.336431,-0.05127,-20.546839,-68.482616,28.02768
1784322691.2048,14:11:31.204,27,false,0.54982,-0.251587,0.639465,0.474854,0.936538,-0.34522,-0.055665,-20.630554,-68.528075,27.976419
1784322691.2361,14:11:31.236,28,false,0.551298,-0.253906,0.637817,0.474121,0.954116,-0.3252,-0.065431,-20.661037,-68.568989,28.10973
1784322691.2675,14:11:31.267,29,false,0.552997,-0.256042,0.636353,0.472961,0.971206,-0.311528,-0.06836,-20.838009,-68.605811,28.15494
1784322691.2988,14:11:31.298,30,false,0.554616,-0.258789,0.634827,0.471619,0.944839,-0.303227,-0.064454,-20.743069,-68.309966,28.225538
1784322691.3299,14:11:31.329,31,false,0.555519,-0.260315,0.633911,0.470947,0.954604,-0.297856,-0.080079,-20.866977,-68.238106,28.124583
1784322691.3611,14:11:31.361,0,false,0.556781,-0.262085,0.632935,0.469788,0.955581,-0.299321,-0.070314,-20.918679,-68.008939,28.123447
1784322691.3922,14:11:31.392,1,false,0.557601,-0.262939,0.632446,0.468994,0.954604,-0.289067,-0.069825,-20.890441,-67.877459,28.017748
1784322691.4233,14:11:31.423,2,false,0.558379,-0.26355,0.631958,0.468384,0.949722,-0.302251,-0.067872,-20.999611,-67.594634,27.907664
1784322691.4545,14:11:31.454,3,false,0.55953,-0.264526,0.631165,0.467529,0.9673,-0.289067,-0.063966,-21.03805,-67.504584,27.973082
1784322691.4856,14:11:31.485,4,false,0.560347,-0.264893,0.630737,0.466919,0.968276,-0.27686,-0.064454,-20.982921,-67.483354,27.942234
1784322691.5168,14:11:31.516,5,false,0.56071,-0.26532,0.630371,0.466736,0.97023,-0.280766,-0.072267,-21.157613,-67.389478,27.944379
1784322691.5481,14:11:31.548,6,false,0.561172,-0.26593,0.629883,0.466492,0.971695,-0.294926,-0.082033,-21.015759,-67.409667,27.916402
1784322691.5794,14:11:31.579,7,false,0.561481,-0.266541,0.629395,0.466431,0.952163,-0.301274,-0.06836,-21.037628,-67.24839,27.786545
1784322691.6108,14:11:31.610,8,false,0.561888,-0.266724,0.629089,0.466248,0.958999,-0.285649,-0.077638,-21.012449,-67.178011,27.774352
1784322691.6421,14:11:31.642,9,false,0.561848,-0.266846,0.629028,0.466309,0.964858,-0.277836,-0.074708,-21.214096,-67.0399,27.688608
1784322691.6734,14:11:31.673,10,false,0.561559,-0.266846,0.62915,0.466492,0.961929,-0.286625,-0.073243,-21.141363,-67.095046,27.716115
1784322691.7046,14:11:31.704,11,false,0.560988,-0.266724,0.629395,0.466919,0.95314,-0.290532,-0.070314,-21.270303,-66.980186,27.621242
1784322691.7358,14:11:31.735,12,false,0.559686,-0.266418,0.629822,0.468079,0.960952,-0.289555,-0.062013,-21.416256,-66.861857,27.580717
1784322691.767,14:11:31.767,13,false,0.55836,-0.266113,0.63031,0.469177,0.957534,-0.286137,-0.071778,-21.502753,-66.78527,27.514336
1784322691.7981,14:11:31.798,14,false,0.557109,-0.265564,0.63092,0.470154,0.945815,-0.292485,-0.06006,-21.565646,-66.776156,27.619086
1784322691.8292,14:11:31.829,15,false,0.555577,-0.265015,0.631409,0.471619,0.956558,-0.288579,-0.06836,-21.532527,-66.857677,27.444192
1784322691.8604,14:11:31.860,16,false,0.554498,-0.264771,0.631775,0.472534,0.969741,-0.299809,-0.061524,-21.472812,-66.916091,27.406418
1784322691.8915,14:11:31.891,17,false,0.553393,-0.264099,0.632385,0.473389,0.946304,-0.326665,-0.059083,-21.553653,-66.953711,27.462145
1784322691.9229,14:11:31.922,18,false,0.552043,-0.263123,0.633057,0.474609,0.950698,-0.30518,-0.057618,-21.417057,-67.077292,27.392668
1784322691.9542,14:11:31.954,19,false,0.550874,-0.262817,0.63324,0.475891,0.95314,-0.309087,-0.0542,-21.324027,-67.128699,27.419862
1784322691.9855,14:11:31.985,20,false,0.549266,-0.261902,0.633545,0.477844,0.947768,-0.327642,-0.060548,-21.255255,-67.010473,27.429383
1784322692.0169,14:11:32.016,21,false,0.548624,-0.261536,0.633423,0.478943,0.953628,-0.316899,-0.07715,-21.11859,-66.978839,27.31832
1784322692.0482,14:11:32.048,22,false,0.547641,-0.261353,0.63324,0.480408,0.952163,-0.325689,-0.0542,-21.070361,-67.129814,27.158549
1784322692.0795,14:11:32.079,23,false,0.546305,-0.259949,0.633301,0.482605,0.957046,-0.336431,-0.06836,-21.086771,-67.175969,27.164293
1784322692.1109,14:11:32.110,24,false,0.544959,-0.25885,0.633606,0.484314,0.945815,-0.347662,-0.074708,-21.071631,-67.307232,27.259186
1784322692.142,14:11:32.142,25,false,0.543533,-0.255554,0.634766,0.486145,0.929213,-0.36231,-0.067872,-21.013144,-67.380506,27.329636
1784322692.1732,14:11:32.173,26,false,0.543259,-0.254456,0.635254,0.486389,0.946304,-0.360357,-0.062013,-20.930599,-67.341777,27.407995
1784322692.2043,14:11:32.204,27,false,0.541925,-0.252563,0.636353,0.487427,0.941421,-0.354986,-0.053223,-20.901169,-67.456459,27.343933
1784322692.2354,14:11:32.235,28,false,0.54115,-0.251587,0.637024,0.487915,0.948745,-0.36231,-0.05713,-20.889636,-67.574626,27.301231
1784322692.2666,14:11:32.266,29,false,0.540653,-0.250488,0.637878,0.487915,0.945815,-0.364752,-0.061036,-20.819441,-67.561346,27.352522
1784322692.2979,14:11:32.297,30,false,0.540335,-0.250122,0.638245,0.487976,0.93312,-0.352544,-0.055665,-20.666542,-67.564348,27.338869
1784322692.3292,14:11:32.329,31,false,0.540106,-0.249756,0.638489,0.488098,0.922377,-0.366705,-0.044923,-20.648564,-67.611911,27.371443
1784322692.3606,14:11:32.360,0,false,0.540249,-0.249207,0.638489,0.48822,0.948257,-0.36231,-0.070314,-20.587523,-67.460318,27.430667
1784322692.3919,14:11:32.391,1,false,0.540366,-0.249146,0.638367,0.488281,0.95314,-0.355474,-0.06836,-20.607354,-67.578099,27.349384
1784322692.4233,14:11:32.423,2,false,0.540303,-0.249512,0.638184,0.488403,0.946304,-0.356451,-0.059083,-20.53548,-67.639241,27.291183
1784322692.4544,14:11:32.454,3,false,0.540308,-0.250244,0.637939,0.488342,0.938979,-0.369146,-0.052247,-20.530608,-67.783991,27.223849
1784322692.4855,14:11:32.485,4,false,0.540783,-0.250793,0.637695,0.487854,0.928725,-0.361334,-0.064454,-20.526224,-67.869406,27.267925
1784322692.5167,14:11:32.516,5,false,0.542027,-0.251526,0.637329,0.486572,0.935073,-0.356939,-0.062501,-20.612001,-67.856555,27.292639
1784322692.5478,14:11:32.547,6,false,0.54275,-0.251648,0.637085,0.486023,0.929213,-0.352544,-0.075685,-20.539661,-67.964621,27.34479
1784322692.579,14:11:32.579,7,false,0.544639,-0.251892,0.636353,0.484741,0.947768,-0.347662,-0.076661,-20.624095,-68.091787,27.316956
1784322692.6101,14:11:32.610,8,false,0.54545,-0.251892,0.636169,0.48407,0.95314,-0.342779,-0.07422,-20.610361,-68.146422,27.276952
1784322692.6412,14:11:32.641,9,false,0.546154,-0.25116,0.636597,0.483093,0.940444,-0.326665,-0.061036,-20.642863,-68.150731,27.225994
1784322692.6724,14:11:32.672,10,false,0.546193,-0.250732,0.636963,0.482788,0.943374,-0.339849,-0.059083,-20.657161,-68.094794,27.165179
1784322692.7037,14:11:32.703,11,false,0.546088,-0.250732,0.637146,0.482666,0.938003,-0.333501,-0.05713,-20.535444,-67.984636,27.050629
1784322692.735,14:11:32.735,12,false,0.546152,-0.250671,0.637207,0.482544,0.945327,-0.33106,-0.061524,-20.575437,-67.960263,26.947535
1784322692.7664,14:11:32.766,13,false,0.546165,-0.250916,0.637146,0.482483,0.938491,-0.344244,-0.054688,-20.611432,-67.908419,27.064103
1784322692.7977,14:11:32.797,14,false,0.546603,-0.250671,0.637329,0.481873,0.937026,-0.344244,-0.065919,-20.46438,-67.78699,27.1092
1784322692.8291,14:11:32.829,15,false,0.546682,-0.250732,0.637329,0.48175,0.945327,-0.331548,-0.052247,-20.436711,-67.782381,27.030156
1784322692.8602,14:11:32.860,16,false,0.546744,-0.250793,0.63739,0.481567,0.924819,-0.336431,-0.0542,-20.471624,-67.808141,26.988924
1784322692.8913,14:11:32.891,17,false,0.546949,-0.250854,0.637329,0.481384,0.946304,-0.335454,-0.06006,-20.368461,-67.69674,26.996677
1784322692.9225,14:11:32.922,18,false,0.547073,-0.250854,0.637268,0.481323,0.938979,-0.331548,-0.057618,-20.45506,-67.835741,27.06347
1784322692.9536,14:11:32.953,19,false,0.547173,-0.250793,0.637207,0.481323,0.941421,-0.335454,-0.05127,-20.533,-67.811303,27.018907
1784322692.9847,14:11:32.984,20,false,0.54791,-0.250305,0.636719,0.481384,0.952163,-0.343755,-0.062501,-20.46856,-67.699586,27.098431
1784322693.0159,14:11:33.015,21,false,0.548161,-0.250183,0.636597,0.481323,0.956558,-0.333013,-0.090333,-20.54515,-67.763533,27.110187
1784322693.047,14:11:33.047,22,false,0.548482,-0.249756,0.636719,0.481018,0.949722,-0.341314,-0.070802,-20.584173,-67.731362,27.180583
1784322693.0784,14:11:33.078,23,false,0.548591,-0.249634,0.636719,0.480957,0.947768,-0.341314,-0.062501,-20.439847,-67.702409,27.16917
1784322693.1097,14:11:33.109,24,false,0.548703,-0.249817,0.636597,0.480896,0.937514,-0.350103,-0.07422,-20.384723,-67.781027,27.054221
1784322693.141,14:11:33.141,25,false,0.548639,-0.249878,0.636536,0.481018,0.936049,-0.348638,-0.050294,-20.29025,-67.672338,26.980675
1784322693.1724,14:11:33.172,26,false,0.549014,-0.249878,0.636536,0.480591,0.959487,-0.347173,-0.067384,-20.414579,-67.634333,26.89953
1784322693.2037,14:11:33.203,27,false,0.549175,-0.249878,0.636719,0.480164,0.946792,-0.34229,-0.070802,-20.421797,-67.600128,26.901268
1784322693.2348,14:11:33.234,28,false,0.549683,-0.249817,0.636719,0.479614,0.940444,-0.336919,-0.064454,-20.443247,-67.584298,26.843018
1784322693.2662,14:11:33.266,29,false,0.550397,-0.25,0.636902,0.478455,0.951675,-0.323247,-0.070802,-20.522368,-67.555097,26.880315
1784322693.2973,14:11:33.297,30,false,0.550869,-0.250244,0.636902,0.477783,0.944839,-0.328618,-0.066407,-20.473946,-67.379277,26.779298
1784322693.3285,14:11:33.328,31,false,0.551061,-0.250793,0.636658,0.4776,0.946792,-0.330083,-0.060548,-20.549997,-67.505163,26.71829
1784322693.3596,14:11:33.359,0,false,0.551439,-0.251587,0.636475,0.47699,0.952163,-0.322271,-0.055665,-20.573581,-67.558644,26.887691
1784322693.3907,14:11:33.390,1,false,0.551708,-0.252075,0.636414,0.476501,0.948745,-0.324712,-0.0542,-20.729392,-67.77127,26.800891
1784322693.4219,14:11:33.421,2,false,0.552154,-0.252869,0.636169,0.475891,0.944839,-0.346685,-0.057618,-20.720083,-67.813095,26.872308
1784322693.4532,14:11:33.453,3,false,0.552613,-0.253052,0.636108,0.475342,0.941909,-0.339849,-0.07129,-20.651889,-67.790922,26.951538
1784322693.4846,14:11:33.484,4,false,0.553403,-0.25293,0.636108,0.474487,0.938003,-0.344244,-0.057618,-20.710146,-67.741058,26.948076
1784322693.5159,14:11:33.515,5,false,0.554146,-0.252869,0.635986,0.473816,0.949722,-0.351568,-0.059083,-20.732669,-67.741042,26.885144
1784322693.5472,14:11:33.547,6,false,0.555146,-0.252502,0.635986,0.472839,0.944839,-0.326177,-0.07422,-20.94734,-67.666259,26.768691
1784322693.5786,14:11:33.578,7,false,0.557003,-0.253052,0.635864,0.47052,0.964858,-0.306157,-0.070802,-20.946144,-67.673723,26.843328
1784322693.6099,14:11:33.609,8,false,0.557591,-0.253723,0.635803,0.469543,0.958511,-0.292973,-0.060548,-20.855344,-67.770164,26.925456
1784322693.6412,14:11:33.641,9,false,0.560005,-0.256226,0.635193,0.466125,0.966812,-0.27686,-0.052247,-20.863347,-67.692469,26.984417
1784322693.6724,14:11:33.672,10,false,0.561796,-0.25769,0.634583,0.463989,0.972183,-0.282719,-0.055665,-21.020089,-67.592635,27.037483
1784322693.7035,14:11:33.703,11,false,0.563714,-0.260681,0.633484,0.461487,0.935561,-0.286137,-0.044434,-21.146202,-67.697185,27.130103
1784322693.7347,14:11:33.734,12,false,0.565659,-0.262512,0.632324,0.459656,0.929702,-0.285161,-0.062989,-21.274658,-67.566972,27.123738
1784322693.7658,14:11:33.765,13,false,0.568463,-0.263855,0.630798,0.45752,0.943374,-0.28809,-0.087892,-21.465038,-67.479688,27.297455
1784322693.7969,14:11:33.796,14,false,0.572184,-0.266541,0.628418,0.45459,0.958999,-0.264652,-0.080568,-21.606472,-67.43104,27.139771
1784322693.8283,14:11:33.828,15,false,0.574268,-0.268982,0.626709,0.452881,0.986831,-0.251469,-0.090333,-21.673947,-67.118088,27.192254
1784322693.8596,14:11:33.859,16,false,0.576018,-0.271423,0.625061,0.451477,0.968276,-0.253422,-0.061524,-21.854305,-66.98597,27.134812
1784322693.8909,14:11:33.890,17,false,0.577489,-0.27417,0.622986,0.450806,0.980972,-0.269535,-0.08838,-21.882043,-66.882017,27.098069
1784322693.9223,14:11:33.922,18,false,0.578367,-0.275574,0.621948,0.450256,0.997086,-0.274907,-0.089357,-21.981777,-66.683782,27.065
1784322693.9536,14:11:33.953,19,false,0.579377,-0.278259,0.620605,0.449158,0.976577,-0.249027,-0.064942,-22.101445,-66.535279,26.960468
1784322693.985,14:11:33.985,20,false,0.57959,-0.279297,0.620117,0.448914,0.977066,-0.241703,-0.078126,-22.134376,-66.401626,26.836482
1784322694.0163,14:11:34.016,21,false,0.580816,-0.281677,0.618774,0.447693,0.991714,-0.2168,-0.083009,-22.268692,-66.116846,26.769756
1784322694.0476,14:11:34.047,22,false,0.581571,-0.282837,0.618286,0.446655,0.991226,-0.212406,-0.07715,-22.314807,-66.114759,26.634933
1784322694.0788,14:11:34.078,23,false,0.581343,-0.284058,0.618469,0.445923,0.98732,-0.178225,-0.07422,-22.401171,-65.87362,26.678085
1784322694.1099,14:11:34.109,24,false,0.5805,-0.283936,0.619141,0.446167,0.978531,-0.184085,-0.067872,-22.448992,-65.731363,26.612245
1784322694.1411,14:11:34.141,25,false,0.579097,-0.283325,0.620117,0.447021,0.959487,-0.198734,-0.069337,-22.447169,-65.573425,26.627758
1784322694.1724,14:11:34.172,26,false,0.577048,-0.282166,0.621277,0.448792,0.976577,-0.20264,-0.063478,-22.520297,-65.580819,26.537043
1784322694.2037,14:11:34.203,27,false,0.575546,-0.282227,0.621582,0.450256,0.984878,-0.201663,-0.07129,-22.556205,-65.542612,26.589984
1784322694.2351,14:11:34.235,28,false,0.573386,-0.281677,0.622009,0.452759,0.965347,-0.240238,-0.069337,-22.543661,-65.508226,26.503047
1784322694.2664,14:11:34.266,29,false,0.572061,-0.281189,0.62207,0.454651,0.976089,-0.238285,-0.062989,-22.666956,-65.537093,26.544433
1784322694.2977,14:11:34.297,30,false,0.570879,-0.280579,0.622314,0.456177,0.969741,-0.268559,-0.064942,-22.628383,-65.488305,26.581681
1784322694.3291,14:11:34.329,31,false,0.569204,-0.27948,0.622864,0.458191,0.973648,-0.257816,-0.068849,-22.713297,-65.519165,26.585297
1784322694.3604,14:11:34.360,0,false,0.568388,-0.278748,0.623352,0.458984,0.971206,-0.25684,-0.072755,-22.714952,-65.502077,26.618459
1784322694.3916,14:11:34.391,1,false,0.567383,-0.27771,0.624146,0.459778,0.971206,-0.266606,-0.067872,-22.71644,-65.411929,26.618397
1784322694.4227,14:11:34.422,2,false,0.565437,-0.275818,0.625488,0.461487,0.985367,-0.277836,-0.062501,-22.732734,-65.510242,26.737972
1784322694.4538,14:11:34.453,3,false,0.564272,-0.274414,0.626526,0.462341,0.974624,-0.278325,-0.064942,-22.777306,-65.628631,26.875497
1784322694.485,14:11:34.485,4,false,0.56247,-0.272278,0.628174,0.463562,0.958511,-0.268559,-0.049317,-22.623021,-65.570689,27.059085
1784322694.5161,14:11:34.516,5,false,0.561956,-0.271484,0.628662,0.463989,0.961929,-0.288579,-0.06836,-22.73838,-65.548448,27.044868
1784322694.5473,14:11:34.547,6,false,0.560428,-0.26947,0.629944,0.465271,0.977554,-0.292973,-0.065431,-22.602941,-65.513479,27.151703
1784322694.5786,14:11:34.578,7,false,0.559418,-0.268127,0.630737,0.466187,0.965835,-0.280278,-0.053712,-22.540862,-65.825944,27.158132
1784322694.6099,14:11:34.609,8,false,0.557593,-0.266541,0.631714,0.467957,0.955093,-0.277348,-0.06836,-22.410221,-65.972578,27.283549
1784322694.6413,14:11:34.641,9,false,0.556627,-0.26532,0.632446,0.468811,0.960952,-0.303716,-0.060548,-22.143106,-65.955011,27.246885
1784322694.6726,14:11:34.672,10,false,0.555739,-0.264465,0.632996,0.469604,0.951186,-0.290043,-0.061524,-21.992425,-66.028923,27.333519
1784322694.7039,14:11:34.703,11,false,0.553881,-0.263245,0.633545,0.471741,0.939956,-0.315923,-0.05713,-21.886721,-66.200121,27.306812
1784322694.7351,14:11:34.735,12,false,0.552622,-0.262268,0.633911,0.473267,0.935561,-0.324712,-0.065431,-21.642048,-66.27943,27.252869
1784322694.7662,14:11:34.766,13,false,0.551832,-0.261169,0.634277,0.474304,0.958511,-0.328618,-0.067872,-21.616243,-66.290992,27.099643
1784322694.7974,14:11:34.797,14,false,0.551025,-0.25946,0.635132,0.475037,0.950698,-0.329595,-0.06006,-21.607971,-66.465891,27.260816
1784322694.8285,14:11:34.828,15,false,0.550766,-0.258362,0.635803,0.475037,0.944839,-0.335943,-0.058106,-21.57062,-66.354131,27.331103
1784322694.8596,14:11:34.859,16,false,0.55049,-0.257446,0.636414,0.475037,0.940932,-0.340337,-0.062013,-21.462234,-66.373177,27.319591
1784322694.8908,14:11:34.890,17,false,0.550452,-0.257263,0.636475,0.475098,0.950698,-0.333989,-0.061524,-21.439456,-66.494996,27.129785
1784322694.9221,14:11:34.922,18,false,0.550451,-0.257568,0.636353,0.475098,0.942397,-0.339849,-0.048829,-21.359141,-66.664448,27.123452
1784322694.9534,14:11:34.953,19,false,0.55134,-0.257996,0.636047,0.474243,0.943862,-0.338872,-0.044434,-21.37658,-66.831908,27.102798
1784322694.9848,14:11:34.984,20,false,0.552291,-0.258545,0.635681,0.473328,0.944839,-0.339361,-0.059571,-21.25769,-66.818131,27.248702
1784322695.0161,14:11:35.016,21,false,0.554889,-0.260315,0.634644,0.470703,0.961929,-0.34229,-0.065431,-21.15069,-66.910408,27.230477
1784322695.0475,14:11:35.047,22,false,0.555927,-0.261047,0.634338,0.469482,0.955093,-0.318364,-0.062501,-21.129159,-66.888781,27.288844
1784322695.0786,14:11:35.078,23,false,0.559178,-0.262695,0.633545,0.465759,0.94435,-0.295903,-0.062013,-21.304181,-66.944085,27.266605
1784322695.1097,14:11:35.109,24,false,0.561296,-0.263672,0.633057,0.463318,0.965347,-0.29395,-0.066896,-21.34207,-66.889182,27.351267
1784322695.1409,14:11:35.140,25,false,0.564202,-0.264954,0.632385,0.459961,0.960952,-0.268559,-0.058595,-21.480847,-66.779954,27.307831
1784322695.172,14:11:35.172,26,false,0.565709,-0.26593,0.631958,0.45813,0.962417,-0.272465,-0.063966,-21.560884,-66.636787,27.298647
1784322695.2032,14:11:35.203,27,false,0.566989,-0.266907,0.631592,0.456482,0.96437,-0.26807,-0.0542,-21.558149,-66.627568,27.290382
1784322695.2343,14:11:35.234,28,false,0.568711,-0.268433,0.630981,0.454285,0.956558,-0.259281,-0.056153,-21.630456,-66.619271,27.282943
1784322695.2654,14:11:35.265,29,false,0.569841,-0.269409,0.630554,0.452881,0.956069,-0.254398,-0.062501,-21.710487,-66.52208,27.336063
1784322695.2966,14:11:35.296,30,false,0.570597,-0.27063,0.630005,0.451965,0.958999,-0.239261,-0.066407,-21.767561,-66.47947,27.398825
1784322695.3279,14:11:35.327,31,false,0.572078,-0.271851,0.629272,0.450378,0.971695,-0.257816,-0.076661,-21.863789,-66.366352,27.455311
1784322695.3592,14:11:35.359,0,false,0.572869,-0.272827,0.628784,0.449463,0.989761,-0.225589,-0.064942,-21.950394,-66.339314,27.506148
1784322695.3906,14:11:35.390,1,false,0.573279,-0.274353,0.628357,0.448608,0.965835,-0.245609,-0.064942,-22.058246,-66.285073,27.477133
1784322695.4219,14:11:35.421,2,false,0.573322,-0.274841,0.628235,0.448425,0.978042,-0.241703,-0.057618,-22.020728,-66.221302,27.436065
1784322695.4533,14:11:35.453,3,false,0.573693,-0.275818,0.627991,0.447693,0.962905,-0.243168,-0.054688,-22.271085,-66.134001,27.533688
1784322695.4844,14:11:35.484,4,false,0.573726,-0.276184,0.62793,0.44751,0.965347,-0.244633,-0.046876,-22.481453,-66.040476,27.561734
1784322695.5155,14:11:35.515,5,false,0.573939,-0.276672,0.627563,0.447449,0.968765,-0.227054,-0.060548,-22.46143,-66.016118,27.676698
1784322695.5467,14:11:35.546,6,false,0.574009,-0.277161,0.627197,0.447571,0.9673,-0.248051,-0.064942,-22.56304,-66.098874,27.675489
1784322695.5778,14:11:35.577,7,false,0.574166,-0.277466,0.626831,0.447693,0.979019,-0.234867,-0.059083,-22.370366,-66.008861,27.659447
1784322695.6089,14:11:35.608,8,false,0.574057,-0.27771,0.626648,0.447937,0.976089,-0.240238,-0.0542,-22.51099,-65.868035,27.68987
1784322695.6401,14:11:35.640,9,false,0.573874,-0.277832,0.626587,0.448181,0.968765,-0.261723,-0.059083,-22.607645,-65.890829,27.612575
1784322695.6712,14:11:35.671,10,false,0.573486,-0.278259,0.626404,0.448669,0.978531,-0.243656,-0.062013,-22.634818,-65.821621,27.483193
1784322695.7026,14:11:35.702,11,false,0.573232,-0.278564,0.626282,0.448975,0.98146,-0.25684,-0.066407,-22.614412,-65.834103,27.486381
1784322695.7339,14:11:35.733,12,false,0.572985,-0.278992,0.626099,0.44928,0.975113,-0.252934,-0.066896,-22.49137,-65.845337,27.549065
1784322695.7652,14:11:35.765,13,false,0.572765,-0.279968,0.625732,0.449463,0.967788,-0.242679,-0.062989,-22.560079,-65.825539,27.500804
1784322695.7966,14:11:35.796,14,false,0.573006,-0.280334,0.62561,0.449097,0.974624,-0.248051,-0.065431,-22.577055,-65.777814,27.591953
1784322695.8279,14:11:35.827,15,false,0.573224,-0.280884,0.625427,0.44873,0.969741,-0.245609,-0.063478,-22.682056,-65.69,27.539403
1784322695.859,14:11:35.859,16,false,0.573703,-0.281616,0.624878,0.448425,0.970718,-0.230961,-0.067384,-22.686835,-65.58106,27.551924
1784322695.8902,14:11:35.890,17,false,0.573805,-0.281738,0.624817,0.448303,0.983902,-0.229984,-0.059571,-22.795812,-65.527875,27.383746
1784322695.9213,14:11:35.921,18,false,0.574083,-0.281982,0.624451,0.448303,0.985855,-0.23682,-0.068849,-22.893891,-65.375331,27.307155
1784322695.9525,14:11:35.952,19,false,0.574137,-0.282104,0.62439,0.448242,0.996597,-0.231449,-0.07129,-22.922348,-65.432442,27.327946
1784322695.9836,14:11:35.983,20,false,0.57421,-0.282288,0.624634,0.447693,0.966812,-0.241703,-0.05127,-23.052635,-65.394119,27.361612
1784322696.0147,14:11:36.014,21,false,0.57438,-0.282349,0.624756,0.447266,0.969253,-0.229007,-0.05713,-23.169894,-65.389536,27.496589
1784322696.0459,14:11:36.045,22,false,0.574559,-0.282776,0.624573,0.447021,0.975113,-0.229984,-0.059571,-23.290381,-65.490088,27.603114
1784322696.0772,14:11:36.077,23,false,0.574512,-0.282776,0.624573,0.447083,0.967788,-0.236332,-0.062013,-23.159557,-65.401139,27.609263
1784322696.1085,14:11:36.108,24,false,0.574668,-0.282959,0.62439,0.447021,0.972671,-0.232914,-0.061036,-23.191355,-65.395853,27.719474
1784322696.1399,14:11:36.139,25,false,0.575016,-0.283081,0.624146,0.446838,0.965835,-0.224613,-0.061036,-23.160157,-65.525681,27.908387
1784322696.1712,14:11:36.171,26,false,0.575218,-0.282959,0.624146,0.446655,0.979019,-0.215335,-0.065919,-23.117125,-65.433173,27.988686
1784322696.2026,14:11:36.202,27,false,0.575319,-0.283081,0.624084,0.446533,0.986343,-0.221683,-0.063966,-23.108304,-65.394777,27.911417
1784322696.2339,14:11:36.233,28,false,0.575193,-0.283508,0.623962,0.446594,0.967788,-0.23389,-0.0542,-23.145227,-65.315358,27.811966
1784322696.2652,14:11:36.265,29,false,0.575236,-0.283997,0.623657,0.446655,0.970718,-0.225589,-0.060548,-23.103687,-65.213974,27.797231
1784322696.2966,14:11:36.296,30,false,0.575889,-0.283997,0.623535,0.445984,0.968276,-0.228519,-0.065919,-23.156026,-65.257313,27.873691
1784322696.3277,14:11:36.327,31,false,0.576084,-0.284424,0.623291,0.445801,0.976577,-0.22266,-0.070802,-23.262946,-65.161734,27.95746
1784322696.3589,14:11:36.358,0,false,0.576392,-0.284546,0.623169,0.445496,0.973159,-0.206058,-0.057618,-23.179728,-65.060758,27.868359
1784322696.39,14:11:36.390,1,false,0.576728,-0.284668,0.623108,0.445068,0.990738,-0.225589,-0.065919,-23.134739,-65.059604,27.952661
1784322696.4213,14:11:36.421,2,false,0.576764,-0.284729,0.623047,0.445068,0.97023,-0.211429,-0.063478,-23.094249,-64.953887,27.878994
1784322696.4525,14:11:36.452,3,false,0.576583,-0.285095,0.623047,0.445068,0.979995,-0.217288,-0.062989,-23.057808,-64.88865,27.932324
1784322696.4838,14:11:36.483,4,false,0.576671,-0.284973,0.623108,0.444946,0.987808,-0.227054,-0.069825,-23.054919,-64.829937,28.040137
1784322696.5151,14:11:36.515,5,false,0.576255,-0.285034,0.623291,0.44519,0.974136,-0.225101,-0.059571,-23.037365,-64.792049,28.017538
1784322696.5465,14:11:36.546,6,false,0.576083,-0.285095,0.623291,0.445374,0.982437,-0.218265,-0.062501,-23.006612,-64.772904,27.937383
1784322696.5778,14:11:36.577,7,false,0.575456,-0.285522,0.623413,0.44574,0.980972,-0.215335,-0.061524,-23.053704,-64.830442,28.014782
1784322696.6092,14:11:36.609,8,false,0.575161,-0.285583,0.623657,0.44574,0.972183,-0.238285,-0.059571,-23.125994,-64.807457,27.979765
1784322696.6405,14:11:36.640,9,false,0.574756,-0.285522,0.62384,0.446045,0.976089,-0.23975,-0.060548,-23.235917,-64.86154,27.843572
1784322696.6718,14:11:36.671,10,false,0.574384,-0.284973,0.62439,0.446106,0.980972,-0.234379,-0.044923,-23.289986,-64.910215,27.930353
1784322696.703,14:11:36.703,11,false,0.574228,-0.284485,0.624756,0.446106,0.968765,-0.244633,-0.050294,-23.278833,-64.98393,28.128086
1784322696.7341,14:11:36.734,12,false,0.574174,-0.284058,0.625,0.446106,0.98732,-0.230472,-0.052735,-23.358518,-65.005412,28.021922
1784322696.7653,14:11:36.765,13,false,0.574037,-0.283508,0.625244,0.446289,0.966812,-0.247074,-0.066407,-23.460143,-64.994838,28.001145
1784322696.7964,14:11:36.796,14,false,0.573832,-0.283386,0.625183,0.446716,0.994156,-0.237308,-0.068849,-23.387112,-65.000275,27.997398
1784322696.8275,14:11:36.827,15,false,0.573486,-0.283508,0.625183,0.447083,0.971206,-0.249516,-0.049805,-23.426062,-65.035076,27.919258
1784322696.8589,14:11:36.858,16,false,0.573331,-0.28363,0.625183,0.447205,0.977554,-0.247074,-0.059571,-23.461116,-65.03649,27.848931
1784322696.8902,14:11:36.890,17,false,0.573396,-0.283325,0.625305,0.447144,0.974136,-0.234867,-0.061036,-23.43285,-65.127485,27.87536
1784322696.9215,14:11:36.921,18,false,0.573353,-0.283142,0.625427,0.447144,0.981949,-0.242679,-0.058595,-23.392457,-65.194427,27.958962
1784322696.9529,14:11:36.952,19,false,0.573179,-0.282898,0.62561,0.447266,0.961929,-0.242679,-0.058595,-23.400964,-65.030367,27.959434
1784322696.9842,14:11:36.984,20,false,0.57332,-0.282593,0.625793,0.447021,0.973159,-0.23682,-0.0542,-23.333852,-65.10702,27.88509
1784322697.0156,14:11:37.015,21,false,0.57316,-0.282898,0.625671,0.447205,0.975113,-0.229984,-0.061036,-23.318312,-65.086285,27.803226
1784322697.0469,14:11:37.046,22,false,0.573123,-0.282837,0.625732,0.447205,0.978042,-0.228031,-0.060548,-23.334234,-65.007809,27.923949
1784322697.078,14:11:37.078,23,false,0.573093,-0.282532,0.625854,0.447266,0.973159,-0.244633,-0.046876,-23.363517,-65.026903,27.942876
1784322697.1092,14:11:37.109,24,false,0.572845,-0.282532,0.625732,0.447754,0.980484,-0.23389,-0.059083,-23.374919,-64.954364,27.765511
1784322697.1403,14:11:37.140,25,false,0.57256,-0.282837,0.625549,0.448181,0.969741,-0.234379,-0.063478,-23.415088,-64.963849,27.680651
1784322697.1714,14:11:37.171,26,false,0.572485,-0.283142,0.625305,0.448425,0.997086,-0.225589,-0.049805,-23.45124,-64.897616,27.634185
1784322697.2026,14:11:37.202,27,false,0.572544,-0.283081,0.625366,0.448303,0.958999,-0.244144,-0.065431,-23.513684,-64.972591,27.682089
1784322697.2339,14:11:37.233,28,false,0.572551,-0.283142,0.625244,0.448425,0.975601,-0.238285,-0.060548,-23.4353,-65.055022,27.75511
1784322697.2653,14:11:37.265,29,false,0.572473,-0.283203,0.625244,0.448486,0.975601,-0.236332,-0.065431,-23.394661,-65.084348,27.775967
1784322697.2966,14:11:37.296,30,false,0.572515,-0.283081,0.625305,0.448425,0.970718,-0.252445,-0.062989,-23.432856,-65.155604,27.974185
1784322697.3279,14:11:37.327,31,false,0.572497,-0.28302,0.625305,0.448486,0.969253,-0.244633,-0.061036,-23.407416,-65.159918,27.883412
1784322697.3592,14:11:37.359,0,false,0.572558,-0.282898,0.625305,0.448486,0.962905,-0.239261,-0.061036,-23.369566,-65.103986,27.786762
1784322697.3905,14:11:37.390,1,false,0.572605,-0.282898,0.625305,0.448425,0.972183,-0.238285,-0.055177,-23.305593,-65.098508,27.909131
1784322697.4218,14:11:37.421,2,false,0.572565,-0.282959,0.625183,0.448608,0.966323,-0.250004,-0.064942,-23.248018,-65.093579,27.839817
1784322697.4529,14:11:37.452,3,false,0.572398,-0.283142,0.625122,0.448792,0.979019,-0.23682,-0.05713,-23.435461,-65.029326,27.732573
1784322697.484,14:11:37.484,4,false,0.572386,-0.283203,0.625061,0.448853,0.973159,-0.247562,-0.064942,-23.439668,-65.106084,27.800546
1784322697.5152,14:11:37.515,5,false,0.572375,-0.283264,0.625,0.448914,0.980484,-0.248051,-0.069825,-23.458408,-65.294797,27.831813
1784322697.5463,14:11:37.546,6,false,0.572327,-0.283264,0.625,0.448975,0.976089,-0.248539,-0.070314,-23.265921,-65.225376,27.889862
1784322697.5774,14:11:37.577,7,false,0.572136,-0.283569,0.624817,0.44928,0.985855,-0.235843,-0.056153,-23.24222,-65.132991,27.792567
1784322697.6088,14:11:37.608,8,false,0.572136,-0.283569,0.624817,0.44928,0.978531,-0.244633,-0.065919,-23.370428,-65.019936,27.734909
1784322697.6401,14:11:37.640,9,false,0.572088,-0.283569,0.624817,0.449341,0.972183,-0.237308,-0.058106,-23.440954,-65.007909,27.772741
1784322697.6715,14:11:37.671,10,false,0.571962,-0.28363,0.624817,0.449463,0.971695,-0.248539,-0.055177,-23.414704,-64.997086,27.627343
1784322697.7028,14:11:37.702,11,false,0.571855,-0.283691,0.624756,0.449646,0.969253,-0.244633,-0.061036,-23.391079,-65.062113,27.616115
1784322697.7341,14:11:37.734,12,false,0.571608,-0.283936,0.624695,0.44989,0.968276,-0.237797,-0.0542,-23.339909,-65.120638,27.561149
1784322697.7653,14:11:37.765,13,false,0.571735,-0.283813,0.624634,0.44989,0.980972,-0.236332,-0.064454,-23.383579,-65.038726,27.526633
1784322697.7964,14:11:37.796,14,false,0.571712,-0.283936,0.624512,0.450012,0.982437,-0.241215,-0.053712,-23.333159,-65.174359,27.450708
1784322697.8275,14:11:37.827,15,false,0.571586,-0.283997,0.624512,0.450134,0.97023,-0.236332,-0.058106,-23.227965,-65.161845,27.502005
1784322697.8587,14:11:37.858,16,false,0.571634,-0.283997,0.624512,0.450073,0.976089,-0.228031,-0.060548,-23.223014,-65.285166,27.45845
1784322697.8898,14:11:37.889,17,false,0.571393,-0.283997,0.624512,0.450378,0.96437,-0.249027,-0.0542,-23.18865,-65.276524,27.523927
1784322697.921,14:11:37.921,18,false,0.571297,-0.283997,0.624512,0.4505,0.969253,-0.254887,-0.063478,-23.097908,-65.328562,27.537995
1784322697.9523,14:11:37.952,19,false,0.571154,-0.283875,0.62439,0.450928,0.986831,-0.246586,-0.059083,-23.076055,-65.315581,27.595518
1784322697.9836,14:11:37.983,20,false,0.570998,-0.283936,0.624329,0.451172,0.973159,-0.243168,-0.06006,-22.981618,-65.229128,27.512704
1784322698.015,14:11:38.015,21,false,0.570896,-0.284058,0.624146,0.451477,0.981949,-0.235843,-0.06836,-23.001301,-65.270952,27.393309
1784322698.0463,14:11:38.046,22,false,0.570836,-0.284119,0.624084,0.451599,0.973648,-0.248539,-0.055177,-23.048924,-65.278685,27.420439
1784322698.0777,14:11:38.077,23,false,0.570884,-0.283813,0.624268,0.451477,0.96437,-0.245121,-0.062989,-23.03197,-65.315553,27.534579
1784322698.109,14:11:38.109,24,false,0.570836,-0.283813,0.624268,0.451538,0.979507,-0.236332,-0.059571,-23.136341,-65.423503,27.637305
1784322698.1401,14:11:38.140,25,false,0.570993,-0.283691,0.624268,0.451416,0.987808,-0.253422,-0.065919,-23.095691,-65.341213,27.669943
1784322698.1713,14:11:38.171,26,false,0.571042,-0.28363,0.624207,0.451477,0.987808,-0.246098,-0.066407,-23.089013,-65.267151,27.59464
1784322698.2024,14:11:38.202,27,false,0.570945,-0.28363,0.624207,0.451599,0.982437,-0.258793,-0.06006,-23.142819,-65.33508,27.646498
1784322698.2335,14:11:38.233,28,false,0.571024,-0.283569,0.624207,0.451538,0.977554,-0.23389,-0.058595,-23.236106,-65.366308,27.633355
1784322698.2647,14:11:38.264,29,false,0.570987,-0.283508,0.624268,0.451538,0.957046,-0.243656,-0.051759,-23.215387,-65.259829,27.741157
1784322698.2958,14:11:38.295,30,false,0.571108,-0.283325,0.624329,0.451416,0.981949,-0.25098,-0.073243,-23.19674,-65.343444,27.733502
1784322698.327,14:11:38.327,31,false,0.57109,-0.283264,0.624329,0.451477,0.970718,-0.242191,-0.066407,-23.239773,-65.373836,27.771474
1784322698.3583,14:11:38.358,0,false,0.57109,-0.283264,0.624329,0.451477,0.966323,-0.244144,-0.062501,-23.11401,-65.296512,27.686018
1784322698.3896,14:11:38.389,1,false,0.57106,-0.283264,0.624268,0.451599,0.979019,-0.255375,-0.069337,-23.090547,-65.211967,27.549292
1784322698.421,14:11:38.421,2,false,0.570981,-0.283447,0.62439,0.451416,0.964858,-0.243168,-0.062501,-23.099337,-65.135876,27.650547
1784322698.4523,14:11:38.452,3,false,0.570775,-0.28363,0.624451,0.451477,0.960952,-0.255375,-0.052247,-23.241834,-65.201978,27.681861
1784322698.4836,14:11:38.483,4,false,0.570738,-0.28363,0.624573,0.451355,0.974624,-0.241703,-0.048829,-23.280357,-65.201655,27.62032
1784322698.515,14:11:38.515,5,false,0.570677,-0.283691,0.624512,0.451477,0.964858,-0.236332,-0.066407,-23.195398,-65.096688,27.639702
1784322698.5463,14:11:38.546,6,false,0.570793,-0.283325,0.624573,0.451477,0.9673,-0.248539,-0.056153,-22.999304,-65.271386,27.597331
1784322698.5775,14:11:38.577,7,false,0.570781,-0.283386,0.624512,0.451538,0.990249,-0.244633,-0.071778,-23.047126,-65.174399,27.633966
1784322698.6086,14:11:38.608,8,false,0.570721,-0.283447,0.624451,0.45166,0.975113,-0.252934,-0.066407,-23.090167,-65.386188,27.63703
1784322698.6397,14:11:38.639,9,false,0.570721,-0.283386,0.62439,0.451782,0.972671,-0.247562,-0.066407,-23.158811,-65.42726,27.669696
1784322698.6709,14:11:38.670,10,false,0.570805,-0.283142,0.624512,0.45166,0.976577,-0.252934,-0.053712,-23.130868,-65.44927,27.863587
1784322698.702,14:11:38.702,11,false,0.570757,-0.283142,0.624512,0.451721,0.978042,-0.255375,-0.076661,-23.060857,-65.543849,27.753966
1784322698.7334,14:11:38.733,12,false,0.570697,-0.283142,0.62439,0.451965,0.977554,-0.247562,-0.072267,-23.057663,-65.314939,27.670261
1784322698.7647,14:11:38.764,13,false,0.570728,-0.283081,0.62439,0.451965,0.979507,-0.250492,-0.065919,-23.02488,-65.243504,27.669695
1784322698.796,14:11:38.796,14,false,0.570922,-0.283325,0.624146,0.451904,0.971206,-0.250004,-0.066896,-23.01033,-65.239029,27.534602
1784322698.8274,14:11:38.827,15,false,0.570904,-0.28363,0.624023,0.451904,0.974136,-0.234379,-0.068849,-22.997235,-65.235001,27.413018
1784322698.8587,14:11:38.858,16,false,0.571126,-0.283997,0.623962,0.451477,0.974136,-0.242679,-0.055665,-22.970495,-65.291191,27.468084
1784322698.8898,14:11:38.889,17,false,0.57121,-0.284424,0.623779,0.451355,0.977066,-0.23682,-0.062501,-22.94643,-65.37167,27.517644
1784322698.921,14:11:38.921,18,false,0.57136,-0.285156,0.623352,0.451294,0.96437,-0.23389,-0.062013,-23.029448,-65.444101,27.53234
1784322698.9521,14:11:38.952,19,false,0.571503,-0.285461,0.623169,0.451172,0.974136,-0.237308,-0.062013,-22.954625,-65.479381,27.575475
1784322698.9833,14:11:38.983,20,false,0.57178,-0.285522,0.623108,0.450867,0.976577,-0.247562,-0.058595,-22.932147,-65.361595,27.614296
1784322699.0144,14:11:39.014,21,false,0.572146,-0.286011,0.622681,0.450684,0.993179,-0.238773,-0.066896,-22.92687,-65.270541,27.604373
1784322699.0455,14:11:39.045,22,false,0.572311,-0.28656,0.622498,0.450378,0.983902,-0.245121,-0.070802,-22.907167,-65.278315,27.505719
1784322699.0767,14:11:39.076,23,false,0.57231,-0.287415,0.622192,0.450256,0.9673,-0.242191,-0.073243,-22.889434,-65.255405,27.416931
1784322699.108,14:11:39.108,24,false,0.572985,-0.288513,0.62146,0.449707,0.984878,-0.223148,-0.062501,-22.903382,-65.339462,27.36693
1784322699.1394,14:11:39.139,25,false,0.573219,-0.289551,0.62085,0.449585,0.976577,-0.232914,-0.051759,-22.930889,-65.370253,27.441559
1784322699.1707,14:11:39.170,26,false,0.573826,-0.291077,0.619751,0.449341,0.971695,-0.228519,-0.064942,-23.000507,-65.353102,27.478817
1784322699.202,14:11:39.202,27,false,0.57452,-0.292053,0.618958,0.448914,0.983413,-0.237308,-0.072267,-23.063163,-65.113359,27.542258
1784322699.2334,14:11:39.233,28,false,0.575046,-0.293457,0.617981,0.448669,0.982437,-0.212894,-0.066896,-23.119554,-65.047129,27.569447
1784322699.2647,14:11:39.264,29,false,0.57596,-0.295959,0.616333,0.44812,0.979019,-0.212406,-0.072267,-23.289936,-64.882845,27.593916
1784322699.296,14:11:39.296,30,false,0.576404,-0.297974,0.61499,0.448059,0.982925,-0.21973,-0.068849,-23.278788,-64.839666,27.615939
1784322699.3272,14:11:39.327,31,false,0.576969,-0.300842,0.612793,0.448425,0.980972,-0.211429,-0.0542,-23.32857,-64.815759,27.650714
1784322699.3583,14:11:39.358,0,false,0.577238,-0.301758,0.612,0.448547,0.989273,-0.218753,-0.067384,-23.373374,-64.794243,27.652103
1784322699.3895,14:11:39.389,1,false,0.577965,-0.304993,0.609436,0.448914,0.992691,-0.209476,-0.077638,-23.488467,-64.819739,27.473907
1784322699.4206,14:11:39.420,2,false,0.5783,-0.30719,0.607788,0.449219,0.982437,-0.207523,-0.078126,-23.502327,-64.827733,27.5827
1784322699.4517,14:11:39.451,3,false,0.579039,-0.310181,0.605652,0.449097,0.990738,-0.195315,-0.087892,-23.679293,-64.625573,27.516122
1784322699.4831,14:11:39.483,4,false,0.579258,-0.3125,0.604248,0.449097,0.969741,-0.18262,-0.06836,-23.733886,-64.48849,27.201986
1784322699.5144,14:11:39.514,5,false,0.57944,-0.314575,0.602905,0.449219,0.990738,-0.189456,-0.072267,-23.842835,-64.454839,27.053848
1784322699.5457,14:11:39.545,6,false,0.580053,-0.3172,0.601074,0.449036,0.991226,-0.171389,-0.080568,-23.881074,-64.260061,27.040155
1784322699.5771,14:11:39.577,7,false,0.580537,-0.31842,0.600098,0.448853,0.980484,-0.176272,-0.075196,-23.855674,-64.279161,26.833431
1784322699.6084,14:11:39.608,8,false,0.580537,-0.319824,0.599121,0.449158,0.982437,-0.16553,-0.075196,-23.967398,-63.98232,26.692241
1784322699.6398,14:11:39.639,9,false,0.580756,-0.321167,0.597961,0.449463,0.978531,-0.156252,-0.088869,-23.918411,-63.789932,26.714708
1784322699.6711,14:11:39.671,10,false,0.580666,-0.322205,0.597168,0.44989,1.004898,-0.161624,-0.087404,-23.889277,-63.751367,26.46576
1784322699.7022,14:11:39.702,11,false,0.580654,-0.323242,0.596619,0.44989,0.98146,-0.179202,-0.086427,-23.937825,-63.567121,26.346383
1784322699.7334,14:11:39.733,12,false,0.580639,-0.323608,0.596436,0.44989,0.996597,-0.172854,-0.07715,-24.146011,-63.416253,26.194082
1784322699.7645,14:11:39.764,13,false,0.580727,-0.324097,0.59613,0.449829,0.98732,-0.163577,-0.083497,-24.18384,-63.250564,26.057012
1784322699.7957,14:11:39.795,14,false,0.580848,-0.324219,0.59613,0.449585,0.98439,-0.16846,-0.081056,-24.008532,-63.086491,25.97851
1784322699.8268,14:11:39.826,15,false,0.580894,-0.324585,0.595886,0.449585,0.988785,-0.162112,-0.074708,-24.015248,-62.864055,25.833089
1784322699.8581,14:11:39.858,16,false,0.581636,-0.324158,0.595947,0.448853,0.98732,-0.171878,-0.083497,-24.096061,-62.693771,25.926517
1784322699.8895,14:11:39.889,17,false,0.58191,-0.323975,0.596008,0.448547,1.006363,-0.16846,-0.089357,-24.094023,-62.540515,25.861065
1784322699.9208,14:11:39.920,18,false,0.582368,-0.323547,0.596252,0.447937,0.998062,-0.168948,-0.084474,-24.047328,-62.402584,25.876927
1784322699.9521,14:11:39.952,19,false,0.582783,-0.322998,0.596558,0.447388,0.982437,-0.167483,-0.070314,-24.124933,-62.248539,25.786526
1784322699.9835,14:11:39.983,20,false,0.583322,-0.322021,0.596924,0.446899,0.988785,-0.156741,-0.085939,-24.194777,-62.139807,25.884611
1784322700.0147,14:11:40.014,21,false,0.583665,-0.321228,0.59729,0.446533,0.991226,-0.168948,-0.083009,-24.302498,-62.13167,25.913072
1784322700.0461,14:11:40.046,22,false,0.583849,-0.320496,0.597595,0.446411,0.995132,-0.169436,-0.075685,-24.324679,-62.09444,25.759241
1784322700.0772,14:11:40.077,23,false,0.584011,-0.319885,0.5979,0.446228,0.993668,-0.166018,-0.073732,-24.494179,-62.060932,25.770331
1784322700.1083,14:11:40.108,24,false,0.584232,-0.319336,0.598206,0.445923,0.989273,-0.179202,-0.082521,-24.542053,-61.985914,25.959759
1784322700.1395,14:11:40.139,25,false,0.584579,-0.318726,0.598511,0.445496,0.976089,-0.174807,-0.091798,-24.570185,-61.978213,25.935844
1784322700.1706,14:11:40.170,26,false,0.584987,-0.318115,0.598755,0.445068,0.989273,-0.170413,-0.078126,-24.550643,-61.971282,25.794689
1784322700.2018,14:11:40.201,27,false,0.585569,-0.317871,0.598633,0.444641,0.999527,-0.16846,-0.094728,-24.682593,-62.039813,25.74242
1784322700.2329,14:11:40.232,28,false,0.586513,-0.317444,0.598389,0.444031,0.985855,-0.177737,-0.083497,-24.621902,-61.922046,25.620608
1784322700.2642,14:11:40.264,29,false,0.586829,-0.317261,0.598267,0.443909,0.99855,-0.162112,-0.084474,-24.64205,-61.816054,25.481069
1784322700.2956,14:11:40.295,30,false,0.587432,-0.316711,0.598328,0.44342,0.991226,-0.166506,-0.088869,-24.585413,-61.795432,25.430254
1784322700.3269,14:11:40.326,31,false,0.587482,-0.316589,0.598389,0.443359,0.984878,-0.166995,-0.089845,-24.624163,-61.941363,25.369566
1784322700.3582,14:11:40.358,0,false,0.58805,-0.315613,0.598572,0.443054,0.993179,-0.162112,-0.078126,-24.5095,-61.953071,25.374763
1784322700.3896,14:11:40.389,1,false,0.588332,-0.31488,0.598816,0.442871,0.985367,-0.152346,-0.080568,-24.481072,-62.038378,25.49907
1784322700.4209,14:11:40.420,2,false,0.588646,-0.314087,0.59906,0.442688,0.985367,-0.184085,-0.094728,-24.261088,-62.085246,25.431501
1784322700.4521,14:11:40.452,3,false,0.588977,-0.313354,0.598938,0.442932,0.983902,-0.167483,-0.086427,-24.272455,-62.067611,25.236104
1784322700.4832,14:11:40.483,4,false,0.589304,-0.312622,0.598999,0.442932,0.989273,-0.171878,-0.103029,-24.29764,-62.036787,25.254646
1784322700.5145,14:11:40.514,5,false,0.589462,-0.311829,0.599121,0.443115,1.004898,-0.175296,-0.091798,-24.350213,-62.128675,25.151704
1784322700.5457,14:11:40.545,6,false,0.589305,-0.310547,0.59967,0.443481,0.990738,-0.176272,-0.096681,-24.20313,-62.106698,25.163733
1784322700.5768,14:11:40.576,7,false,0.589092,-0.30957,0.600159,0.443787,0.973159,-0.178714,-0.095216,-24.085708,-61.997196,25.129697
1784322700.6079,14:11:40.607,8,false,0.588786,-0.308411,0.60083,0.444092,0.982925,-0.176761,-0.092287,-23.994983,-62.093043,25.114019
1784322700.6393,14:11:40.639,9,false,0.588577,-0.307861,0.601135,0.444336,0.990249,-0.168948,-0.097169,-23.883422,-62.074629,25.099909
1784322700.6706,14:11:40.670,10,false,0.588212,-0.307373,0.601563,0.44458,0.982437,-0.177737,-0.099123,-24.082095,-62.162734,25.117117
1784322700.702,14:11:40.702,11,false,0.587895,-0.306335,0.602356,0.444641,0.980972,-0.181643,-0.092775,-24.051546,-62.301843,25.19242
1784322700.7333,14:11:40.733,12,false,0.587401,-0.305847,0.602905,0.444885,0.985367,-0.187015,-0.088869,-24.009098,-62.307411,25.275146
1784322700.7644,14:11:40.764,13,false,0.586752,-0.305298,0.603455,0.445374,0.977554,-0.195804,-0.081544,-23.926034,-62.372237,25.200062
1784322700.7956,14:11:40.795,14,false,0.586395,-0.305298,0.603577,0.445679,0.986831,-0.193362,-0.076661,-23.955953,-62.535257,25.117532
1784322700.8267,14:11:40.826,15,false,0.58593,-0.30481,0.604004,0.446045,0.976089,-0.190921,-0.083986,-23.908111,-62.637114,25.118024
1784322700.8579,14:11:40.857,16,false,0.585761,-0.304688,0.604004,0.44635,0.992203,-0.183108,-0.089357,-23.999637,-62.818508,25.178282
1784322700.889,14:11:40.889,17,false,0.585496,-0.303955,0.604675,0.446289,1.003922,-0.198734,-0.080568,-23.872657,-62.862132,25.247469
1784322700.9201,14:11:40.920,18,false,0.58501,-0.30365,0.605164,0.446472,0.975601,-0.203616,-0.082521,-23.967729,-62.916348,25.115336
1784322700.9513,14:11:40.951,19,false,0.584821,-0.303284,0.60553,0.446472,0.989761,-0.189456,-0.081056,-23.888802,-62.890373,25.131002
1784322700.9824,14:11:40.982,20,false,0.584648,-0.302917,0.605835,0.446533,0.965835,-0.192874,-0.076173,-23.802813,-63.031487,25.160055
1784322701.0137,14:11:41.013,21,false,0.584648,-0.302795,0.605896,0.446533,0.975601,-0.195315,-0.085939,-23.845054,-62.979044,25.186202
1784322701.0451,14:11:41.045,22,false,0.584741,-0.302429,0.606079,0.446411,0.990738,-0.189944,-0.079103,-23.808302,-62.931846,25.254597
1784322701.0764,14:11:41.076,23,false,0.584926,-0.301941,0.606323,0.446167,0.984878,-0.203616,-0.087404,-23.864948,-62.799644,25.301198
1784322701.1078,14:11:41.107,24,false,0.584942,-0.301575,0.606445,0.446228,0.988785,-0.202152,-0.084474,-23.751437,-62.949831,25.313231
1784322701.1391,14:11:41.139,25,false,0.584845,-0.300903,0.606873,0.446228,0.991714,-0.206058,-0.084474,-23.739,-62.950415,25.353969
1784322701.1704,14:11:41.170,26,false,0.584798,-0.300781,0.606934,0.446289,0.978531,-0.212894,-0.082521,-23.608176,-62.995803,25.390633
1784322701.2018,14:11:41.201,27,false,0.584735,-0.300476,0.607056,0.446411,0.989761,-0.201175,-0.095705,-23.62502,-63.156282,25.393722
1784322701.2329,14:11:41.232,28,false,0.584658,-0.300476,0.606995,0.446594,0.986831,-0.206058,-0.081056,-23.535502,-63.091359,25.396503
1784322701.264,14:11:41.264,29,false,0.584472,-0.300476,0.606995,0.446838,0.986343,-0.209476,-0.096681,-23.425028,-63.15256,25.53359
1784322701.2952,14:11:41.295,30,false,0.584564,-0.300659,0.606995,0.446594,0.985367,-0.190433,-0.084474,-23.370463,-63.177733,25.5822
1784322701.3263,14:11:41.326,31,false,0.584437,-0.301086,0.606995,0.446472,0.982925,-0.196292,-0.075196,-23.396123,-63.05085,25.446502
1784322701.3575,14:11:41.357,0,false,0.584031,-0.301758,0.606873,0.446716,0.978042,-0.195315,-0.076173,-23.419218,-63.086194,25.473913
1784322701.3888,14:11:41.388,1,false,0.583921,-0.301758,0.606934,0.446777,0.97023,-0.209964,-0.080568,-23.499818,-63.103049,25.543444
1784322701.4201,14:11:41.420,2,false,0.583564,-0.302002,0.60675,0.447327,0.989273,-0.196292,-0.076661,-23.467682,-63.058404,25.56116
1784322701.4515,14:11:41.451,3,false,0.583674,-0.301758,0.606812,0.447266,0.991226,-0.191897,-0.084474,-23.438759,-62.943454,25.607012
1784322701.4828,14:11:41.482,4,false,0.583689,-0.301575,0.606934,0.447205,0.998062,-0.190433,-0.09424,-23.517406,-62.974583,25.633326
1784322701.514,14:11:41.514,5,false,0.583432,-0.30127,0.607422,0.447083,0.971695,-0.220218,-0.07715,-23.588187,-63.0026,25.657008
1784322701.5451,14:11:41.545,6,false,0.583399,-0.300964,0.607605,0.447083,0.97023,-0.209964,-0.081056,-23.816383,-62.968,25.723183
1784322701.5762,14:11:41.576,7,false,0.582977,-0.30127,0.607544,0.44751,0.986831,-0.209476,-0.076661,-23.782498,-63.071444,25.66311
1784322701.6074,14:11:41.607,8,false,0.582678,-0.301025,0.607727,0.447815,0.979507,-0.211429,-0.087892,-23.752001,-63.119682,25.86326
1784322701.6385,14:11:41.638,9,false,0.582757,-0.300781,0.607727,0.447876,0.983902,-0.214847,-0.079103,-23.619877,-63.043466,25.804133
1784322701.6696,14:11:41.669,10,false,0.582662,-0.300537,0.607849,0.447998,0.977554,-0.219242,-0.080079,-23.680412,-63.064594,25.735965
1784322701.7008,14:11:41.700,11,false,0.582646,-0.300476,0.607849,0.448059,0.981949,-0.202152,-0.095216,-23.690032,-63.188286,25.85406
1784322701.7319,14:11:41.731,12,false,0.582676,-0.300171,0.607971,0.448059,0.983413,-0.200198,-0.078126,-23.638874,-63.060348,25.765946
1784322701.7633,14:11:41.763,13,false,0.582201,-0.299927,0.608276,0.448425,0.977554,-0.207523,-0.081544,-23.562924,-63.169511,25.821227
1784322701.7946,14:11:41.794,14,false,0.581928,-0.299133,0.608704,0.44873,0.98146,-0.208011,-0.087404,-23.629154,-63.252804,25.721442
1784322701.8259,14:11:41.825,15,false,0.581582,-0.299133,0.608765,0.449097,0.983413,-0.207034,-0.079591,-23.703715,-63.267953,25.646589
1784322701.8573,14:11:41.857,16,false,0.581265,-0.29895,0.608887,0.449463,0.979019,-0.209476,-0.082033,-23.711004,-63.221771,25.668945
1784322701.8886,14:11:41.888,17,false,0.580785,-0.298645,0.609314,0.449707,0.977066,-0.2168,-0.090822,-23.687657,-63.225069,25.689065
1784322701.9199,14:11:41.919,18,false,0.580877,-0.298401,0.609436,0.449585,0.999039,-0.213382,-0.089357,-23.606829,-63.198129,25.722127
1784322701.9511,14:11:41.951,19,false,0.580777,-0.298096,0.60968,0.449585,0.965347,-0.216312,-0.079591,-23.623807,-63.129022,25.736929
1784322701.9822,14:11:41.982,20,false,0.580742,-0.297791,0.609863,0.449585,0.974624,-0.21973,-0.080079,-23.609179,-63.216364,25.705389
1784322702.0134,14:11:42.013,21,false,0.580693,-0.297668,0.609924,0.449646,0.989761,-0.208499,-0.076173,-23.551153,-63.294972,25.721865
1784322702.0445,14:11:42.044,22,false,0.580676,-0.297424,0.609924,0.449829,0.977554,-0.212406,-0.085451,-23.61856,-63.320857,25.691831
1784322702.0756,14:11:42.075,23,false,0.581096,-0.296814,0.610046,0.449524,0.995621,-0.20557,-0.089845,-23.469872,-63.3292,25.724617
1784322702.107,14:11:42.107,24,false,0.58103,-0.296753,0.610229,0.449402,0.972671,-0.234379,-0.077638,-23.425777,-63.321755,25.739169
1784322702.1383,14:11:42.138,25,false,0.580931,-0.29657,0.610413,0.449402,0.982925,-0.218265,-0.075196,-23.401045,-63.479547,25.767221
1784322702.1697,14:11:42.169,26,false,0.580943,-0.296387,0.610535,0.449341,0.993179,-0.225589,-0.084962,-23.408693,-63.486975,25.777513
1784322702.201,14:11:42.201,27,false,0.580755,-0.296326,0.610474,0.449707,0.983413,-0.218753,-0.085939,-23.445485,-63.463752,25.712007
1784322702.2323,14:11:42.232,28,false,0.580659,-0.296204,0.610535,0.449829,0.974624,-0.218265,-0.086427,-23.37392,-63.47276,25.68296
1784322702.2637,14:11:42.263,29,false,0.58075,-0.295898,0.610596,0.449829,0.980484,-0.224125,-0.085939,-23.384281,-63.525728,25.731586
1784322702.2948,14:11:42.294,30,false,0.580639,-0.295837,0.610596,0.450012,0.975113,-0.217288,-0.081544,-23.318837,-63.49863,25.70058
1784322702.3259,14:11:42.325,31,false,0.580638,-0.295654,0.610596,0.450134,0.982925,-0.223148,-0.085451,-23.409476,-63.50415,25.672675
1784322702.3571,14:11:42.357,0,false,0.580372,-0.295837,0.610535,0.450439,0.972183,-0.231449,-0.075196,-23.191974,-63.583886,25.587746
1784322702.3882,14:11:42.388,1,false,0.58061,-0.295776,0.610474,0.450256,0.979507,-0.231937,-0.076173,-23.160714,-63.595834,25.735616
1784322702.4194,14:11:42.419,2,false,0.580894,-0.295715,0.610413,0.450012,0.968276,-0.211429,-0.079103,-23.222303,-63.69631,25.569623
1784322702.4505,14:11:42.450,3,false,0.580926,-0.295837,0.610413,0.44989,0.978042,-0.211917,-0.081056,-23.322595,-63.786739,25.599675
1784322702.4816,14:11:42.481,4,false,0.580862,-0.295837,0.610474,0.44989,0.982437,-0.212894,-0.082521,-23.203504,-63.823263,25.566907
1784322702.513,14:11:42.513,5,false,0.580643,-0.296082,0.610474,0.450012,0.986343,-0.200198,-0.076173,-23.200999,-63.930904,25.642092
1784322702.5443,14:11:42.544,6,false,0.580291,-0.295898,0.610718,0.450256,0.98439,-0.210941,-0.075685,-23.153883,-63.938058,25.799482
1784322702.5756,14:11:42.575,7,false,0.579497,-0.295044,0.611389,0.450928,0.976089,-0.2168,-0.077638,-23.261017,-63.974404,25.836456
1784322702.607,14:11:42.607,8,false,0.579252,-0.294739,0.611633,0.451111,0.972671,-0.21973,-0.073243,-23.222853,-63.872531,25.854779
1784322702.6383,14:11:42.638,9,false,0.578644,-0.293762,0.612183,0.451782,0.97023,-0.235843,-0.073243,-23.188506,-63.900475,25.766593
1784322702.6697,14:11:42.669,10,false,0.578331,-0.293213,0.612427,0.452209,0.990738,-0.224613,-0.072755,-23.172547,-63.94058,25.672271
1784322702.7008,14:11:42.700,11,false,0.577419,-0.292725,0.613159,0.452698,0.983413,-0.224613,-0.075196,-23.203045,-63.976674,25.692059
1784322702.7319,14:11:42.731,12,false,0.576687,-0.291199,0.614258,0.453125,0.991226,-0.226566,-0.074708,-23.080955,-64.039066,25.784637
1784322702.7631,14:11:42.763,13,false,0.575131,-0.28833,0.616211,0.454285,0.969741,-0.219242,-0.07715,-23.045844,-64.169988,25.897864
1784322702.7942,14:11:42.794,14,false,0.57176,-0.283508,0.619995,0.456421,0.941909,-0.249027,-0.06006,-23.014243,-64.25791,25.925
1784322702.8254,14:11:42.825,15,false,0.569756,-0.280212,0.622253,0.457886,0.937514,-0.254887,-0.07129,-23.01571,-64.366948,25.919515
1784322702.8565,14:11:42.856,16,false,0.567199,-0.275696,0.624756,0.460388,0.958999,-0.285161,-0.058595,-22.957216,-64.42022,26.004301
1784322702.8878,14:11:42.887,17,false,0.566147,-0.273071,0.625916,0.46167,0.98146,-0.316411,-0.060548,-22.859709,-64.438258,26.065655
1784322702.9192,14:11:42.919,18,false,0.56512,-0.27124,0.626648,0.463013,0.982925,-0.306645,-0.066896,-22.876629,-64.648891,26.120873
1784322702.9505,14:11:42.950,19,false,0.564367,-0.269043,0.627686,0.463806,0.971206,-0.307134,-0.073732,-22.802135,-64.823508,26.185523
1784322702.9818,14:11:42.981,20,false,0.564123,-0.2677,0.628479,0.463806,0.953628,-0.29395,-0.059083,-22.794905,-64.920847,26.183893
1784322703.0132,14:11:43.013,21,false,0.564207,-0.266541,0.629211,0.463379,0.958511,-0.31104,-0.072267,-22.653814,-65.023407,26.346918
1784322703.0445,14:11:43.044,22,false,0.565643,-0.267029,0.62915,0.461426,0.945815,-0.295415,-0.058595,-22.452063,-65.190479,26.388964
1784322703.0757,14:11:43.075,23,false,0.567557,-0.268799,0.628235,0.45929,0.956558,-0.279301,-0.067872,-22.330302,-65.325891,26.36699
1784322703.1068,14:11:43.106,24,false,0.571074,-0.2724,0.62616,0.455627,0.957534,-0.260746,-0.063966,-22.265579,-65.358038,26.362167
1784322703.1379,14:11:43.137,25,false,0.5723,-0.273865,0.625244,0.454468,0.957534,-0.244144,-0.079591,-22.312005,-65.282294,26.342873
1784322703.1691,14:11:43.169,26,false,0.576233,-0.27832,0.622131,0.45105,0.97023,-0.208988,-0.092287,-22.353788,-65.034678,26.400277
1784322703.2002,14:11:43.200,27,false,0.578763,-0.280701,0.6203,0.448853,0.974136,-0.20264,-0.082521,-22.525978,-65.125854,26.511756
1784322703.2313,14:11:43.231,28,false,0.582154,-0.284058,0.61731,0.446472,0.965835,-0.228031,-0.093263,-22.576272,-65.013513,26.522364
1784322703.2627,14:11:43.262,29,false,0.583675,-0.285645,0.615845,0.445496,0.99855,-0.220706,-0.099123,-22.666398,-65.017083,26.561819
1784322703.294,14:11:43.294,30,false,0.584266,-0.287781,0.614685,0.444946,1.001968,-0.208988,-0.089845,-22.837234,-64.930572,26.537513
1784322703.3254,14:11:43.325,31,false,0.584449,-0.2901,0.613464,0.444885,0.973648,-0.227543,-0.076173,-22.901264,-64.897575,26.500684
1784322703.3567,14:11:43.356,0,false,0.584381,-0.291443,0.612671,0.44519,0.985855,-0.214359,-0.080079,-23.063567,-64.837969,26.332954
1784322703.388,14:11:43.388,1,false,0.584336,-0.292603,0.611938,0.445496,0.980972,-0.232425,-0.07129,-23.179733,-64.709555,26.286673
1784322703.4192,14:11:43.419,2,false,0.584537,-0.293579,0.611145,0.445679,0.983413,-0.218753,-0.073732,-23.224467,-64.653797,26.289882
1784322703.4503,14:11:43.450,3,false,0.58441,-0.294189,0.61084,0.445862,0.995132,-0.222171,-0.084474,-23.279681,-64.648477,26.277816
1784322703.4815,14:11:43.481,4,false,0.584243,-0.294312,0.610718,0.446167,0.997086,-0.205081,-0.087892,-23.23965,-64.553966,26.28191
1784322703.5126,14:11:43.512,5,false,0.583703,-0.294067,0.611084,0.446533,0.994156,-0.201663,-0.076661,-23.143808,-64.453952,26.136057
1784322703.5437,14:11:43.543,6,false,0.582285,-0.293396,0.612,0.447571,0.978531,-0.209476,-0.083009,-23.17718,-64.543385,26.139373
1784322703.5749,14:11:43.574,7,false,0.579224,-0.290405,0.614624,0.44989,0.965347,-0.219242,-0.075685,-23.267031,-64.429476,26.157312
1784322703.6062,14:11:43.606,8,false,0.57702,-0.288025,0.616516,0.45166,0.974624,-0.239261,-0.06836,-23.303034,-64.401726,26.143549
1784322703.6375,14:11:43.637,9,false,0.573669,-0.284485,0.619263,0.454407,0.974136,-0.250004,-0.052247,-23.1859,-64.451521,26.205932
1784322703.6689,14:11:43.668,10,false,0.572733,-0.283203,0.620178,0.455139,0.949233,-0.273442,-0.059571,-23.155247,-64.496336,26.366753
1784322703.7002,14:11:43.700,11,false,0.570493,-0.280579,0.622131,0.456909,0.980484,-0.291997,-0.061036,-23.12766,-64.417039,26.406816
1784322703.7316,14:11:43.731,12,false,0.569599,-0.279602,0.622986,0.457458,0.965347,-0.281254,-0.057618,-23.028063,-64.465302,26.368103
1784322703.7629,14:11:43.762,13,false,0.568943,-0.278503,0.623718,0.457947,0.961929,-0.269535,-0.075196,-22.99824,-64.598462,26.422984
1784322703.7942,14:11:43.794,14,false,0.56882,-0.278625,0.623596,0.458191,0.963882,-0.265629,-0.070314,-22.9714,-64.673445,26.502284
1784322703.8254,14:11:43.825,15,false,0.568981,-0.278809,0.623413,0.45813,0.9673,-0.267582,-0.076661,-22.872475,-64.66616,26.573655
1784322703.8565,14:11:43.856,16,false,0.568854,-0.279175,0.62323,0.458313,0.979507,-0.261234,-0.070802,-22.81335,-64.704465,26.533212
1784322703.8877,14:11:43.887,17,false,0.568497,-0.279602,0.62323,0.458496,0.955093,-0.27393,-0.076661,-22.745183,-64.798755,26.481859
1784322703.9188,14:11:43.918,18,false,0.568439,-0.28009,0.623108,0.458435,0.970718,-0.25391,-0.061524,-22.758603,-64.988292,26.540319
1784322703.9499,14:11:43.949,19,false,0.568558,-0.280457,0.622925,0.458313,0.956069,-0.278325,-0.0542,-22.725819,-64.934569,26.667701
1784322703.9811,14:11:43.981,20,false,0.568766,-0.280334,0.622925,0.45813,0.960464,-0.274907,-0.058595,-22.860805,-64.931079,26.632807
1784322704.0124,14:11:44.012,21,false,0.569278,-0.280579,0.622437,0.458008,0.972183,-0.258305,-0.074708,-22.802847,-65.047569,26.586449
1784322704.0437,14:11:44.043,22,false,0.569485,-0.280701,0.622192,0.458008,0.976577,-0.259281,-0.069337,-22.750685,-65.077641,26.649403
1784322704.0751,14:11:44.075,23,false,0.569927,-0.280579,0.621887,0.457947,0.980484,-0.264652,-0.073732,-22.763554,-65.089752,26.616339
1784322704.1064,14:11:44.106,24,false,0.569981,-0.28064,0.621765,0.458008,0.972671,-0.261234,-0.078126,-22.655506,-65.025882,26.706212
1784322704.1378,14:11:44.137,25,false,0.570163,-0.280334,0.621826,0.457886,0.97023,-0.248051,-0.082521,-22.797524,-65.013261,26.637559
1784322704.1691,14:11:44.169,26,false,0.57004,-0.280457,0.621704,0.45813,0.971695,-0.266606,-0.069825,-22.820663,-65.166395,26.560818
1784322704.2002,14:11:44.200,27,false,0.569902,-0.280273,0.621643,0.458496,0.975601,-0.255375,-0.078126,-22.781673,-65.244399,26.656243
1784322704.2314,14:11:44.231,28,false,0.569708,-0.279419,0.62207,0.458679,0.974624,-0.263676,-0.089357,-22.776489,-65.120203,26.652402
1784322704.2625,14:11:44.262,29,false,0.569225,-0.279358,0.622314,0.458984,0.978042,-0.255375,-0.068849,-22.712009,-65.202827,26.514361
1784322704.2936,14:11:44.293,30,false,0.568439,-0.279541,0.622681,0.459351,0.967788,-0.259281,-0.05713,-22.534346,-65.202419,26.674247
1784322704.3248,14:11:44.324,31,false,0.568136,-0.279175,0.622986,0.459534,0.968276,-0.255375,-0.071778,-22.419311,-65.127283,26.68356
1784322704.3559,14:11:44.355,0,false,0.567588,-0.279114,0.623108,0.460083,0.958511,-0.271,-0.062501,-22.495225,-65.104522,26.796619
1784322704.3871,14:11:44.387,1,false,0.567109,-0.278564,0.623474,0.46051,0.983413,-0.271977,-0.07715,-22.548594,-65.054129,26.838556
1784322704.4184,14:11:44.418,2,false,0.566894,-0.278015,0.623779,0.460693,0.982437,-0.281743,-0.070802,-22.581672,-65.188222,26.966023
1784322704.4497,14:11:44.449,3,false,0.566759,-0.277222,0.62439,0.46051,0.97023,-0.278813,-0.062989,-22.536674,-65.338813,26.946158
1784322704.4811,14:11:44.481,4,false,0.565837,-0.276672,0.625244,0.460815,0.958999,-0.280766,-0.065431,-22.496175,-65.474345,26.883418
1784322704.5124,14:11:44.512,5,false,0.565571,-0.276184,0.62561,0.460938,0.962905,-0.271977,-0.07129,-22.459726,-65.416878,26.722276
1784322704.5438,14:11:44.543,6,false,0.564555,-0.275269,0.626526,0.461487,0.972183,-0.271,-0.061036,-22.591414,-65.529649,26.771647
1784322704.5749,14:11:44.574,7,false,0.564065,-0.274963,0.626831,0.461853,0.969741,-0.279789,-0.06006,-22.605257,-65.481605,26.636636
1784322704.6062,14:11:44.606,8,false,0.562623,-0.273987,0.627563,0.463196,0.966812,-0.294438,-0.058106,-22.542946,-65.513135,26.664663
1784322704.6374,14:11:44.637,9,false,0.562062,-0.273193,0.628052,0.463684,0.96144,-0.282719,-0.058106,-22.50182,-65.556466,26.525396
1784322704.6685,14:11:44.668,10,false,0.56126,-0.272339,0.628418,0.464661,0.962417,-0.282719,-0.070802,-22.375083,-65.655279,26.639317
1784322704.6996,14:11:44.699,11,false,0.560673,-0.271729,0.628845,0.465149,0.963394,-0.297368,-0.061524,-22.26102,-65.74421,26.667077
1784322704.7308,14:11:44.730,12,false,0.560191,-0.271179,0.62915,0.465637,0.96144,-0.292485,-0.066896,-22.173318,-65.809295,26.632245
1784322704.7619,14:11:44.761,13,false,0.559743,-0.27002,0.629822,0.465942,0.96144,-0.300786,-0.064942,-22.184108,-65.957594,26.660712
1784322704.7933,14:11:44.793,14,false,0.559685,-0.269104,0.63031,0.465881,0.969253,-0.298833,-0.061524,-22.208774,-66.00134,26.850825
1784322704.8246,14:11:44.824,15,false,0.5597,-0.268494,0.630737,0.465637,0.952163,-0.299321,-0.064454,-22.186111,-66.085573,26.932203
1784322704.8559,14:11:44.855,16,false,0.55999,-0.267578,0.631409,0.464905,0.959487,-0.304692,-0.052247,-22.016176,-66.131475,26.900767
1784322704.8873,14:11:44.887,17,false,0.560103,-0.266968,0.631836,0.464539,0.958999,-0.300786,-0.061036,-22.012773,-66.247557,27.007058
1784322704.9186,14:11:44.918,18,false,0.560469,-0.26593,0.632263,0.464111,0.96144,-0.304692,-0.054688,-21.979803,-66.292214,27.087767
1784322704.9497,14:11:44.949,19,false,0.560316,-0.265381,0.632629,0.464111,0.960952,-0.299809,-0.055665,-21.860407,-66.392221,26.995912
1784322704.9809,14:11:44.980,20,false,0.560299,-0.264648,0.632996,0.46405,0.963882,-0.287114,-0.056641,-21.872581,-66.482228,27.01792
1784322705.0122,14:11:45.012,21,false,0.560371,-0.263489,0.633728,0.463623,0.958022,-0.30811,-0.044923,-21.97326,-66.608095,26.948004
1784322705.0434,14:11:45.043,22,false,0.559949,-0.263184,0.634094,0.463806,0.952651,-0.308598,-0.05127,-21.929287,-66.706422,26.974803
1784322705.0745,14:11:45.074,23,false,0.560198,-0.262268,0.634521,0.46344,0.96437,-0.304204,-0.055177,-21.889712,-66.794916,26.998922
1784322705.1056,14:11:45.105,24,false,0.560176,-0.262207,0.634521,0.463501,0.949233,-0.307622,-0.054688,-21.764371,-66.889515,27.005675
1784322705.137,14:11:45.137,25,false,0.560609,-0.26178,0.634583,0.463135,0.954116,-0.297856,-0.061524,-21.816056,-66.929792,27.101476
1784322705.1683,14:11:45.168,26,false,0.560946,-0.261719,0.634399,0.463013,0.958999,-0.303716,-0.060548,-21.727988,-66.906226,27.202651
1784322705.1997,14:11:45.199,27,false,0.561347,-0.261841,0.634216,0.462708,0.968765,-0.291997,-0.061524,-21.61882,-67.034555,27.233892
1784322705.231,14:11:45.231,28,false,0.561793,-0.261719,0.634094,0.462402,0.960464,-0.286137,-0.063478,-21.68506,-66.91079,27.232102
1784322705.2623,14:11:45.262,29,false,0.561865,-0.26178,0.634094,0.46228,0.957534,-0.292485,-0.063478,-21.654953,-66.889124,27.290307
1784322705.2937,14:11:45.293,30,false,0.561898,-0.262329,0.633972,0.462097,0.949722,-0.30811,-0.066896,-21.71758,-66.92944,27.357644
1784322705.325,14:11:45.325,31,false,0.562358,-0.26239,0.63385,0.46167,0.958022,-0.306645,-0.05713,-21.818806,-66.995633,27.493017
1784322705.3561,14:11:45.356,0,false,0.563015,-0.26239,0.633667,0.461121,0.965347,-0.303227,-0.05713,-21.760371,-67.055206,27.614853
1784322705.3873,14:11:45.387,1,false,0.563755,-0.263184,0.633301,0.460266,0.959487,-0.292973,-0.062989,-21.782549,-67.108822,27.694598
1784322705.4184,14:11:45.418,2,false,0.564316,-0.263489,0.633118,0.459656,0.956069,-0.29688,-0.059571,-21.757647,-67.201937,27.721506
1784322705.4496,14:11:45.449,3,false,0.56498,-0.264221,0.632751,0.458923,0.969253,-0.279789,-0.063966,-21.810005,-67.136203,27.715816
1784322705.4807,14:11:45.480,4,false,0.565141,-0.264526,0.632568,0.458801,0.95021,-0.285161,-0.069825,-21.842173,-67.241534,27.695742
1784322705.5118,14:11:45.511,5,false,0.565709,-0.265259,0.632019,0.458435,0.957534,-0.276371,-0.072755,-21.781401,-67.276517,27.647767
1784322705.5432,14:11:45.543,6,false,0.565833,-0.266052,0.631531,0.458496,0.941909,-0.277348,-0.07422,-21.771568,-67.293048,27.664404
1784322705.5745,14:11:45.574,7,false,0.565975,-0.266907,0.631042,0.458496,0.9673,-0.285649,-0.067872,-21.882349,-67.233157,27.604609
1784322705.6058,14:11:45.605,8,false,0.565724,-0.2677,0.630798,0.458679,0.95021,-0.287114,-0.056153,-21.967098,-67.089531,27.53584
1784322705.6372,14:11:45.637,9,false,0.565911,-0.267944,0.630615,0.458557,0.966323,-0.294926,-0.047852,-22.133095,-67.079899,27.56367
1784322705.6685,14:11:45.668,10,false,0.565619,-0.26886,0.63031,0.458801,0.960952,-0.296391,-0.058106,-22.147908,-67.101138,27.648533
1784322705.6997,14:11:45.699,11,false,0.565557,-0.26886,0.630188,0.459045,0.970718,-0.312016,-0.063478,-22.146286,-67.03053,27.739864
1784322705.7308,14:11:45.730,12,false,0.565403,-0.268127,0.630371,0.459412,0.982925,-0.307134,-0.060548,-22.219595,-67.071659,27.717384
1784322705.7619,14:11:45.761,13,false,0.565143,-0.267395,0.630737,0.459656,0.940932,-0.310063,-0.06006,-22.165942,-67.033907,27.831737
1784322705.7931,14:11:45.793,14,false,0.564814,-0.267212,0.630798,0.460083,0.958511,-0.283207,-0.06006,-22.087747,-67.029837,27.725301
1784322705.8242,14:11:45.824,15,false,0.564318,-0.267639,0.630615,0.460693,0.986831,-0.267582,-0.052735,-22.092141,-67.100943,27.704278
1784322705.8554,14:11:45.855,16,false,0.563164,-0.268311,0.630737,0.461548,0.973159,-0.275883,-0.048829,-21.976465,-67.09017,27.640495
1784322705.8867,14:11:45.886,17,false,0.562364,-0.26886,0.630859,0.462036,0.945815,-0.269535,-0.055665,-21.932172,-66.960843,27.568137
1784322705.918,14:11:45.918,18,false,0.562082,-0.269287,0.630615,0.462463,0.956558,-0.284672,-0.076173,-21.937169,-66.799588,27.682461
1784322705.9494,14:11:45.949,19,false,0.562117,-0.268433,0.630859,0.462585,0.951675,-0.282231,-0.077638,-21.941667,-66.803996,27.755445
1784322705.9807,14:11:45.980,20,false,0.561475,-0.266602,0.631714,0.463257,0.959487,-0.295903,-0.064942,-21.975623,-66.807964,27.851038
1784322706.012,14:11:46.012,21,false,0.561003,-0.266235,0.632019,0.463623,0.962905,-0.30518,-0.052247,-21.781875,-66.781627,27.832395
1784322706.0434,14:11:46.043,22,false,0.559893,-0.265564,0.632568,0.4646,0.946792,-0.310552,-0.051759,-21.801902,-66.832693,27.890385
1784322706.0747,14:11:46.074,23,false,0.559415,-0.265503,0.632568,0.46521,0.956069,-0.310063,-0.055665,-21.745158,-66.878652,27.867807
1784322706.1061,14:11:46.106,24,false,0.559027,-0.265442,0.632263,0.466125,0.948257,-0.312016,-0.060548,-21.619318,-67.024692,27.982072
1784322706.1372,14:11:46.137,25,false,0.559175,-0.265137,0.63208,0.46637,0.969253,-0.309575,-0.070314,-21.595786,-66.961729,27.965279
1784322706.1683,14:11:46.168,26,false,0.559233,-0.265198,0.631958,0.466431,0.969741,-0.300298,-0.082033,-21.709191,-67.024692,27.935212
1784322706.1995,14:11:46.199,27,false,0.559171,-0.265076,0.632019,0.466492,0.958022,-0.303716,-0.051759,-21.676671,-67.066405,28.027782
1784322706.2306,14:11:46.230,28,false,0.559171,-0.265259,0.631897,0.466553,0.959976,-0.293462,-0.061524,-21.587588,-67.118901,28.021372
1784322706.2617,14:11:46.261,29,false,0.559023,-0.265503,0.631836,0.466675,0.948257,-0.304692,-0.058106,-21.567229,-67.151194,28.105326
1784322706.2931,14:11:46.293,30,false,0.558941,-0.265869,0.631348,0.467224,0.9673,-0.297856,-0.069825,-21.459182,-67.120441,28.061254
1784322706.3244,14:11:46.324,31,false,0.558977,-0.266052,0.631104,0.467407,0.959976,-0.307622,-0.066896,-21.720832,-67.107718,28.036544
1784322706.3558,14:11:46.355,0,false,0.559191,-0.265747,0.631042,0.467407,0.96437,-0.30811,-0.062989,-21.702102,-67.26076,27.954488
1784322706.3871,14:11:46.387,1,false,0.559169,-0.265686,0.631042,0.467468,0.972183,-0.284672,-0.087404,-21.62543,-67.204097,28.015223
1784322706.4184,14:11:46.418,2,false,0.559016,-0.26532,0.631287,0.467529,0.945327,-0.300298,-0.063966,-21.631194,-67.183008,28.069885
1784322706.4498,14:11:46.449,3,false,0.558596,-0.265381,0.631226,0.468079,0.959487,-0.300786,-0.057618,-21.666289,-67.119167,27.954588
1784322706.4809,14:11:46.480,4,false,0.558336,-0.265503,0.631042,0.468567,0.962417,-0.300298,-0.081544,-21.697875,-67.016848,27.820913
1784322706.5121,14:11:46.512,5,false,0.557832,-0.265198,0.630981,0.469421,0.955093,-0.311528,-0.064942,-21.696394,-67.134115,27.895005
1784322706.5432,14:11:46.543,6,false,0.557626,-0.265198,0.630981,0.469666,0.956069,-0.309087,-0.059083,-21.590385,-67.060209,27.782242
1784322706.5743,14:11:46.574,7,false,0.556992,-0.265015,0.630981,0.47052,0.958511,-0.307134,-0.062013,-21.5847,-67.113325,27.845248
1784322706.6055,14:11:46.605,8,false,0.556575,-0.264954,0.63092,0.47113,0.959976,-0.318853,-0.075196,-21.549675,-67.161128,27.857091
1784322706.6366,14:11:46.636,9,false,0.556144,-0.264954,0.630798,0.471802,0.954604,-0.323735,-0.063478,-21.548061,-67.249013,27.867751
1784322706.6679,14:11:46.667,10,false,0.555856,-0.265015,0.630798,0.472107,0.935073,-0.307134,-0.066896,-21.59147,-67.208479,27.877344
1784322706.6993,14:11:46.699,11,false,0.555799,-0.264771,0.630859,0.472229,0.964858,-0.314458,-0.064942,-21.60063,-67.186952,27.900932
1784322706.7306,14:11:46.730,12,false,0.555349,-0.264587,0.631287,0.47229,0.945327,-0.302251,-0.067384,-21.638781,-67.227393,27.832438
1784322706.762,14:11:46.762,13,false,0.554887,-0.264465,0.631653,0.472412,0.94728,-0.318364,-0.062501,-21.64321,-67.278744,27.800701
1784322706.7933,14:11:46.793,14,false,0.554586,-0.264404,0.631897,0.472473,0.950698,-0.31104,-0.060548,-21.46775,-67.295052,27.652507
1784322706.8246,14:11:46.824,15,false,0.553601,-0.264648,0.632202,0.473083,0.941909,-0.315435,-0.0542,-21.459374,-67.339637,27.563994
1784322706.856,14:11:46.856,16,false,0.553462,-0.264465,0.632263,0.473267,0.950698,-0.3252,-0.055177,-21.302298,-67.275087,27.559101
1784322706.8871,14:11:46.887,17,false,0.553335,-0.264221,0.632385,0.473389,0.951675,-0.321782,-0.07422,-21.265606,-67.187084,27.584606
1784322706.9183,14:11:46.918,18,false,0.553312,-0.26416,0.632385,0.47345,0.943374,-0.329107,-0.063966,-21.382122,-67.167696,27.53279
1784322706.9494,14:11:46.949,19,false,0.553492,-0.263672,0.632568,0.473267,0.954116,-0.32813,-0.065919,-21.367355,-67.210063,27.545972
1784322706.9805,14:11:46.980,20,false,0.553619,-0.263367,0.632629,0.473206,0.948257,-0.328618,-0.069337,-21.324157,-67.128562,27.572789
1784322707.0117,14:11:47.011,21,false,0.553764,-0.263428,0.632751,0.472839,0.954116,-0.324224,-0.059083,-21.285279,-66.980443,27.447386
1784322707.043,14:11:47.043,22,false,0.554054,-0.263733,0.632507,0.472656,0.959976,-0.314946,-0.06006,-21.235335,-66.966765,27.31957
1784322707.0743,14:11:47.074,23,false,0.554181,-0.263794,0.632507,0.472473,0.966812,-0.312993,-0.073243,-21.280109,-66.96941,27.294258
1784322707.1057,14:11:47.105,24,false,0.554568,-0.264038,0.632385,0.472046,0.958511,-0.317388,-0.066896,-21.290497,-67.016651,27.271478
1784322707.137,14:11:47.137,25,false,0.554804,-0.26416,0.632446,0.471619,0.954604,-0.298833,-0.066407,-21.449385,-66.954492,27.325745
1784322707.1684,14:11:47.168,26,false,0.555425,-0.263977,0.632568,0.470825,0.957534,-0.302739,-0.06006,-21.442846,-66.928456,27.404492
1784322707.1997,14:11:47.199,27,false,0.555627,-0.263733,0.632629,0.470642,0.958999,-0.315435,-0.064942,-21.451915,-66.89007,27.430504
1784322707.2308,14:11:47.230,28,false,0.555828,-0.263489,0.63269,0.470459,0.956069,-0.310552,-0.063478,-21.504938,-66.960199,27.558591
1784322707.262,14:11:47.262,29,false,0.556184,-0.263245,0.632751,0.470093,0.967788,-0.312505,-0.069337,-21.447982,-66.9635,27.434608
1784322707.2931,14:11:47.293,30,false,0.556297,-0.263367,0.632874,0.469727,0.972183,-0.318364,-0.062501,-21.54626,-67.011333,27.547331
1784322707.3242,14:11:47.324,31,false,0.556076,-0.263794,0.632935,0.469666,0.957046,-0.301762,-0.052247,-21.470218,-66.994567,27.334751
1784322707.3554,14:11:47.355,0,false,0.556081,-0.264038,0.632874,0.469604,0.963882,-0.312505,-0.069337,-21.40178,-67.054246,27.292967
1784322707.3865,14:11:47.386,1,false,0.555811,-0.264282,0.632874,0.469788,0.959976,-0.306645,-0.058106,-21.429909,-66.988327,27.270316
1784322707.4179,14:11:47.417,2,false,0.555772,-0.264038,0.632874,0.469971,0.954116,-0.30811,-0.067384,-21.515041,-67.048631,27.234976
1784322707.4492,14:11:47.449,3,false,0.555669,-0.264038,0.632874,0.470093,0.964858,-0.31397,-0.077638,-21.501936,-67.043089,27.113447
1784322707.4805,14:11:47.480,4,false,0.555865,-0.26355,0.632996,0.469971,0.965835,-0.308598,-0.067872,-21.490142,-66.933424,27.333055
1784322707.5119,14:11:47.511,5,false,0.555871,-0.263428,0.632996,0.470032,0.957046,-0.313481,-0.07129,-21.434665,-66.909495,27.306395
1784322707.5432,14:11:47.543,6,false,0.555928,-0.263672,0.632935,0.46991,0.937514,-0.322271,-0.061524,-21.444552,-67.022543,27.237539
1784322707.5746,14:11:47.574,7,false,0.556167,-0.263428,0.63269,0.470093,0.970718,-0.321294,-0.078126,-21.468404,-67.094379,27.22043
1784322707.6059,14:11:47.605,8,false,0.555922,-0.263,0.632629,0.470703,0.972671,-0.322759,-0.063966,-21.48987,-67.129124,27.205033
1784322707.637,14:11:47.637,9,false,0.554832,-0.262268,0.633118,0.471741,0.945815,-0.343267,-0.052247,-21.494236,-67.175348,27.25099
1784322707.6682,14:11:47.668,10,false,0.554582,-0.262207,0.633362,0.471741,0.949233,-0.346197,-0.065919,-21.557981,-67.157134,27.023183
1784322707.6993,14:11:47.699,11,false,0.554587,-0.262634,0.633362,0.471497,0.940444,-0.327642,-0.064454,-21.405998,-67.245418,27.012556
1784322707.7304,14:11:47.730,12,false,0.555271,-0.262756,0.633484,0.470459,0.945815,-0.287114,-0.070802,-21.478567,-67.265059,27.062807
1784322707.7616,14:11:47.761,13,false,0.55546,-0.262939,0.633423,0.470215,0.936049,-0.289555,-0.066407,-21.379386,-67.22292,26.943541
1784322707.7929,14:11:47.792,14,false,0.555284,-0.263977,0.632874,0.470581,0.959976,-0.302251,-0.065431,-21.245262,-67.155088,26.940878
1784322707.8243,14:11:47.824,15,false,0.555075,-0.265259,0.632385,0.470764,0.940444,-0.304692,-0.061036,-21.169412,-67.243577,26.908574
1784322707.8556,14:11:47.855,16,false,0.555565,-0.266479,0.631714,0.470398,0.97023,-0.269047,-0.059083,-21.190871,-67.083955,26.924362
1784322707.8869,14:11:47.886,17,false,0.55641,-0.2677,0.631226,0.46936,0.968765,-0.288579,-0.058595,-21.210183,-67.119742,26.983433
1784322707.9183,14:11:47.918,18,false,0.556106,-0.268005,0.631409,0.469299,0.948745,-0.295903,-0.058595,-21.21261,-67.017366,26.946873
1784322707.9496,14:11:47.949,19,false,0.555809,-0.268372,0.63147,0.46936,0.946304,-0.304204,-0.055665,-21.319471,-67.074766,26.734524
1784322707.981,14:11:47.981,20,false,0.555681,-0.268494,0.631531,0.46936,0.943374,-0.306157,-0.051759,-21.325924,-67.06661,26.692947
1784322708.0121,14:11:48.012,21,false,0.556321,-0.268127,0.631531,0.468811,0.946304,-0.316411,-0.059083,-21.242008,-67.119086,26.685436
1784322708.0432,14:11:48.043,22,false,0.557159,-0.268066,0.631226,0.468262,0.956069,-0.301762,-0.070802,-21.256206,-67.151359,26.69363
1784322708.0744,14:11:48.074,23,false,0.558656,-0.268127,0.630554,0.467346,0.972671,-0.300298,-0.085451,-21.358708,-67.165452,26.790728
1784322708.1055,14:11:48.105,24,false,0.559361,-0.268188,0.63031,0.466797,0.962417,-0.301274,-0.078614,-21.421052,-67.357582,26.773439
1784322708.1366,14:11:48.136,25,false,0.559836,-0.268372,0.630127,0.46637,0.951675,-0.301274,-0.061036,-21.417346,-67.395914,26.668156
1784322708.1678,14:11:48.167,26,false,0.560569,-0.268188,0.630005,0.465759,0.96437,-0.306645,-0.059083,-21.354195,-67.310782,26.618262
1784322708.1991,14:11:48.199,27,false,0.560469,-0.267822,0.630249,0.465759,0.969253,-0.29688,-0.056153,-21.192683,-67.234163,26.752805
1784322708.2305,14:11:48.230,28,false,0.559719,-0.267822,0.630554,0.466248,0.973648,-0.312505,-0.058595,-21.301537,-67.239975,26.739308
1784322708.2618,14:11:48.261,29,false,0.558071,-0.267334,0.631409,0.467346,0.955581,-0.30518,-0.053712,-21.309783,-67.26016,26.921561
1784322708.2931,14:11:48.293,30,false,0.557097,-0.266968,0.631836,0.46814,0.96144,-0.332525,-0.057618,-21.332157,-67.338142,26.951004
1784322708.3245,14:11:48.324,31,false,0.555948,-0.267029,0.632324,0.468811,0.960464,-0.314946,-0.059571,-21.397156,-67.288695,27.127041
1784322708.3558,14:11:48.355,0,false,0.555809,-0.267029,0.632446,0.468811,0.950698,-0.302251,-0.056153,-21.231348,-67.363823,27.255567
1784322708.387,14:11:48.387,1,false,0.555531,-0.267029,0.63269,0.468811,0.956558,-0.303716,-0.065431,-21.126982,-67.296854,27.311425
1784322708.4181,14:11:48.418,2,false,0.555549,-0.267029,0.632629,0.468872,0.950698,-0.308598,-0.056153,-21.092867,-67.296398,27.301881
1784322708.4492,14:11:48.449,3,false,0.555685,-0.266418,0.632813,0.468811,0.966812,-0.299321,-0.067384,-21.107026,-67.370756,27.412923
1784322708.4804,14:11:48.480,4,false,0.555817,-0.265991,0.633057,0.468567,0.950698,-0.312993,-0.054688,-21.059954,-67.303093,27.453045
1784322708.5115,14:11:48.511,5,false,0.556003,-0.265381,0.63324,0.468445,0.942885,-0.302251,-0.055665,-21.017588,-67.272105,27.489155
1784322708.5426,14:11:48.542,6,false,0.556019,-0.264587,0.633423,0.468628,0.947768,-0.323735,-0.061036,-21.158906,-67.109631,27.342208
1784322708.574,14:11:48.574,7,false,0.555723,-0.264343,0.633423,0.469116,0.941421,-0.321294,-0.067872,-21.181415,-67.172758,27.284725
1784322708.6053,14:11:48.605,8,false,0.555764,-0.263855,0.633545,0.469177,0.954604,-0.312993,-0.068849,-21.201672,-67.199665,27.412436
1784322708.6367,14:11:48.636,9,false,0.55563,-0.263367,0.633911,0.469116,0.951186,-0.320317,-0.062989,-21.219905,-67.253788,27.452607
1784322708.668,14:11:48.668,10,false,0.555547,-0.263062,0.634155,0.469055,0.953628,-0.317388,-0.065919,-21.161544,-67.347361,27.384084
1784322708.6991,14:11:48.699,11,false,0.555338,-0.263062,0.634338,0.469055,0.956558,-0.32813,-0.062989,-21.168835,-67.371762,27.516813
1784322708.7303,14:11:48.730,12,false,0.555479,-0.263123,0.63446,0.468689,0.94728,-0.314946,-0.051759,-21.175397,-67.363814,27.606362
1784322708.7614,14:11:48.761,13,false,0.555869,-0.263245,0.634338,0.468323,0.959976,-0.312016,-0.055177,-21.211211,-67.43143,27.612186
1784322708.7925,14:11:48.792,14,false,0.556286,-0.263611,0.633911,0.468201,0.951675,-0.316411,-0.062989,-21.228489,-67.43247,27.737059
1784322708.8237,14:11:48.823,15,false,0.55669,-0.263855,0.633545,0.468079,0.953628,-0.305669,-0.063478,-21.16927,-67.508175,27.744768
1784322708.8548,14:11:48.854,16,false,0.557258,-0.264038,0.63324,0.467712,0.959976,-0.312505,-0.069825,-21.22065,-67.651078,27.751705
1784322708.886,14:11:48.886,17,false,0.55736,-0.264038,0.63324,0.46759,0.952651,-0.310552,-0.063478,-21.117354,-67.630153,27.832719
1784322708.9171,14:11:48.917,18,false,0.55761,-0.26416,0.63324,0.467224,0.955093,-0.310063,-0.05127,-21.069248,-67.61132,27.800954
1784322708.9484,14:11:48.948,19,false,0.557838,-0.264587,0.632996,0.467041,0.95314,-0.306157,-0.056153,-21.2054,-67.66914,27.727503
1784322708.9798,14:11:48.979,20,false,0.55848,-0.265076,0.632629,0.466492,0.958022,-0.320317,-0.066407,-21.223259,-67.49687,27.661398
1784322709.0111,14:11:49.011,21,false,0.559411,-0.265198,0.632385,0.465637,0.956069,-0.31104,-0.063478,-21.299148,-67.476411,27.691627
1784322709.0425,14:11:49.042,22,false,0.560242,-0.265747,0.631958,0.464905,0.976577,-0.301274,-0.063966,-21.382402,-67.398184,27.55434
1784322709.0737,14:11:49.073,23,false,0.560989,-0.266602,0.631653,0.463928,0.946792,-0.300298,-0.059083,-21.442376,-67.417502,27.640136
1784322709.1048,14:11:49.104,24,false,0.561597,-0.267029,0.63147,0.463196,0.973648,-0.299809,-0.065919,-21.526261,-67.509657,27.672491
1784322709.136,14:11:49.136,25,false,0.562005,-0.267334,0.63147,0.462524,0.956069,-0.289555,-0.059083,-21.422311,-67.368289,27.492256
1784322709.1671,14:11:49.167,26,false,0.562203,-0.267944,0.631348,0.462097,0.939956,-0.288579,-0.053712,-21.448387,-67.450412,27.494538
1784322709.1982,14:11:49.198,27,false,0.562414,-0.268066,0.631287,0.461853,0.960464,-0.284672,-0.061524,-21.516717,-67.195338,27.451729
1784322709.2294,14:11:49.229,28,false,0.562234,-0.268311,0.631165,0.462097,0.957534,-0.292485,-0.066896,-21.533352,-67.145217,27.383294
1784322709.2605,14:11:49.260,29,false,0.562332,-0.268066,0.631226,0.462036,0.959976,-0.299321,-0.06836,-21.578232,-67.085155,27.54601
1784322709.2919,14:11:49.291,30,false,0.562221,-0.268127,0.631165,0.462219,0.975601,-0.289067,-0.078614,-21.439177,-67.120822,27.602731
1784322709.3232,14:11:49.323,31,false,0.562041,-0.268372,0.631042,0.462463,0.959976,-0.295903,-0.055665,-21.493474,-67.212738,27.608918
1784322709.3545,14:11:49.354,0,false,0.56194,-0.268372,0.631042,0.462585,0.958022,-0.28809,-0.061036,-21.467572,-67.071154,27.539718
1784322709.3859,14:11:49.385,1,false,0.56184,-0.268372,0.631042,0.462708,0.956069,-0.304692,-0.06836,-21.623707,-66.973637,27.626976
1784322709.4172,14:11:49.417,2,false,0.561951,-0.268311,0.631104,0.462524,0.965347,-0.290043,-0.069825,-21.584781,-66.96064,27.735416
1784322709.4485,14:11:49.448,3,false,0.562186,-0.268372,0.631226,0.462036,0.963394,-0.292485,-0.059571,-21.639472,-66.933989,27.593751
1784322709.4799,14:11:49.479,4,false,0.562331,-0.268555,0.631287,0.46167,0.951675,-0.291997,-0.046387,-21.643832,-66.984773,27.585882
1784322709.5112,14:11:49.511,5,false,0.562849,-0.268677,0.631531,0.460632,0.958999,-0.286137,-0.056641,-21.752432,-66.895894,27.548893
1784322709.5424,14:11:49.542,6,false,0.562952,-0.268738,0.631592,0.460388,0.968276,-0.281254,-0.049317,-21.850173,-66.860764,27.635234
1784322709.5735,14:11:49.573,7,false,0.563341,-0.268433,0.631775,0.459839,0.958999,-0.299809,-0.063966,-21.74374,-66.679608,27.563402
1784322709.6046,14:11:49.604,8,false,0.563558,-0.268616,0.631592,0.459717,0.977554,-0.278325,-0.059571,-21.782534,-66.710969,27.693153
1784322709.6358,14:11:49.635,9,false,0.563502,-0.268982,0.631531,0.459656,0.965347,-0.28809,-0.057618,-21.757634,-66.799008,27.690298
1784322709.6669,14:11:49.666,10,false,0.563318,-0.26947,0.631531,0.459595,0.963394,-0.283696,-0.043458,-21.884762,-66.773567,27.583052
1784322709.6983,14:11:49.698,11,false,0.563559,-0.269409,0.631653,0.459167,0.957046,-0.280766,-0.062501,-21.849639,-66.631039,27.665977
1784322709.7296,14:11:49.729,12,false,0.563867,-0.269531,0.631592,0.458801,0.970718,-0.290532,-0.053223,-21.86289,-66.771933,27.740609
1784322709.7609,14:11:49.760,13,false,0.564043,-0.269592,0.631409,0.458801,0.963394,-0.313481,-0.045411,-21.874816,-66.704337,27.733009
1784322709.7923,14:11:49.792,14,false,0.56418,-0.269592,0.631287,0.458801,0.974136,-0.294438,-0.055665,-21.885549,-66.688363,27.756076
1784322709.8236,14:11:49.823,15,false,0.564328,-0.270203,0.630981,0.458679,0.958511,-0.291508,-0.059571,-21.94007,-66.659032,27.657206
1784322709.855,14:11:49.855,16,false,0.564622,-0.270508,0.630676,0.458557,0.960464,-0.292485,-0.05713,-21.974185,-66.602727,27.687854
1784322709.8863,14:11:49.886,17,false,0.564706,-0.271545,0.630066,0.458679,0.962905,-0.287602,-0.059571,-21.974982,-66.477283,27.61076
1784322709.9174,14:11:49.917,18,false,0.565175,-0.271973,0.629639,0.458435,0.962417,-0.294438,-0.071778,-22.02056,-66.46906,27.631099
1784322709.9486,14:11:49.948,19,false,0.565713,-0.272461,0.629211,0.458069,0.976577,-0.265629,-0.055665,-22.016718,-66.476614,27.589588
1784322709.9797,14:11:49.979,20,false,0.566477,-0.272949,0.628845,0.457336,0.958022,-0.278325,-0.064942,-22.132892,-66.528273,27.432598
1784322710.0108,14:11:50.010,21,false,0.566687,-0.27356,0.628479,0.457214,0.9673,-0.281743,-0.073243,-22.117817,-66.559813,27.410937
1784322710.042,14:11:50.042,22,false,0.567652,-0.27417,0.628052,0.456238,0.982437,-0.267582,-0.070802,-22.119204,-66.543337,27.481165
1784322710.0733,14:11:50.073,23,false,0.567834,-0.274719,0.627869,0.455933,0.959487,-0.260746,-0.047852,-22.030729,-66.618232,27.49951
1784322710.1047,14:11:50.104,24,false,0.568173,-0.275146,0.627686,0.455505,0.96437,-0.252445,-0.073732,-22.130548,-66.610869,27.471158
1784322710.136,14:11:50.136,25,false,0.568484,-0.275818,0.627197,0.455383,0.969741,-0.245609,-0.069825,-22.160569,-66.589287,27.535364
1784322710.1673,14:11:50.167,26,false,0.568576,-0.276184,0.626953,0.455383,0.972183,-0.259281,-0.067384,-22.187589,-66.599772,27.533335
1784322710.1987,14:11:50.198,27,false,0.568737,-0.276367,0.62677,0.455322,0.969741,-0.261234,-0.076173,-22.256768,-66.5793,27.591323
1784322710.23,14:11:50.230,28,false,0.568536,-0.276794,0.626587,0.455566,0.980972,-0.263188,-0.076661,-22.199398,-66.516014,27.538836
1784322710.2613,14:11:50.261,29,false,0.568522,-0.276672,0.626831,0.455322,0.956558,-0.271489,-0.066896,-22.222534,-66.35438,27.745813
1784322710.2925,14:11:50.292,30,false,0.568473,-0.276672,0.626831,0.455383,0.961929,-0.252445,-0.062989,-22.422803,-66.253771,27.7676
1784322710.3236,14:11:50.323,31,false,0.568327,-0.276733,0.626892,0.455444,0.963394,-0.265141,-0.053223,-22.34883,-66.223038,27.697486
1784322710.3548,14:11:50.354,0,false,0.567649,-0.276428,0.627197,0.456055,0.963394,-0.274907,-0.059083,-22.327115,-66.24024,27.783921
1784322710.3859,14:11:50.385,1,false,0.567425,-0.276245,0.627258,0.45636,0.964858,-0.283207,-0.058595,-22.307572,-66.315537,27.682266
1784322710.4172,14:11:50.417,2,false,0.567409,-0.276001,0.62738,0.45636,0.962417,-0.277836,-0.057618,-22.424568,-66.36835,27.6805
1784322710.4486,14:11:50.448,3,false,0.567046,-0.27594,0.62738,0.456848,0.958999,-0.285649,-0.058106,-22.529865,-66.266344,27.529373
1784322710.4799,14:11:50.479,4,false,0.566824,-0.275574,0.627563,0.457092,0.969741,-0.271489,-0.067384,-22.505,-66.2194,27.677481
1784322710.5113,14:11:50.511,5,false,0.566465,-0.275085,0.627747,0.457581,0.979995,-0.280766,-0.055177,-22.467669,-66.296781,27.691147
1784322710.5426,14:11:50.542,6,false,0.56632,-0.274902,0.627869,0.457703,0.977066,-0.28809,-0.065919,-22.463978,-66.336516,27.673539
1784322710.5737,14:11:50.573,7,false,0.566141,-0.274902,0.627808,0.458008,0.97023,-0.285649,-0.067872,-22.385887,-66.402185,27.6876
1784322710.6049,14:11:50.604,8,false,0.566124,-0.274658,0.62793,0.458008,0.970718,-0.271977,-0.064454,-22.345513,-66.446334,27.640439
1784322710.636,14:11:50.636,9,false,0.565975,-0.274658,0.62793,0.458191,0.965835,-0.278813,-0.052735,-22.458715,-66.381391,27.642856
1784322710.6671,14:11:50.667,10,false,0.565806,-0.274841,0.627869,0.458374,0.96437,-0.266606,-0.052247,-22.366197,-66.35285,27.600169
1784322710.6983,14:11:50.698,11,false,0.565738,-0.274841,0.62793,0.458374,0.961929,-0.283696,-0.053712,-22.253023,-66.372024,27.681382
1784322710.7294,14:11:50.729,12,false,0.565528,-0.275146,0.627808,0.458618,0.959487,-0.266117,-0.058595,-22.181074,-66.34442,27.604935
1784322710.7606,14:11:50.760,13,false,0.565499,-0.274963,0.627869,0.458679,0.962417,-0.274418,-0.068849,-22.325673,-66.349483,27.625856
1784322710.7919,14:11:50.791,14,false,0.56545,-0.274963,0.627869,0.45874,0.96437,-0.285161,-0.063966,-22.246459,-66.324133,27.704501
1784322710.8232,14:11:50.823,15,false,0.565331,-0.274902,0.627869,0.458923,0.965347,-0.261234,-0.065431,-22.444335,-66.301317,27.521065
1784322710.8546,14:11:50.854,16,false,0.565358,-0.275024,0.627747,0.458984,0.988785,-0.270512,-0.072267,-22.442978,-66.26583,27.580281
1784322710.8859,14:11:50.885,17,false,0.565037,-0.275024,0.627991,0.459045,0.954604,-0.269047,-0.050294,-22.322126,-66.144168,27.618621
1784322710.9173,14:11:50.917,18,false,0.564992,-0.274902,0.628174,0.458923,0.974624,-0.276371,-0.047852,-22.362897,-66.288887,27.653127
1784322710.9486,14:11:50.948,19,false,0.565074,-0.274658,0.628296,0.458801,0.960952,-0.271489,-0.06006,-22.339776,-66.299504,27.639321
1784322710.9799,14:11:50.979,20,false,0.564808,-0.274658,0.628357,0.459045,0.969253,-0.290043,-0.057618,-22.453551,-66.324013,27.671758
1784322711.0111,14:11:51.011,21,false,0.564788,-0.274597,0.628357,0.459106,0.965347,-0.272465,-0.065431,-22.48118,-66.346071,27.70095
1784322711.0422,14:11:51.042,22,false,0.56482,-0.274353,0.628479,0.459045,0.960464,-0.279789,-0.061036,-22.401369,-66.35097,27.742177
1784322711.0733,14:11:51.073,23,false,0.564751,-0.274292,0.628479,0.459167,0.965347,-0.28809,-0.058595,-22.404308,-66.415194,27.719466
1784322711.1045,14:11:51.104,24,false,0.564592,-0.274414,0.628479,0.45929,0.962417,-0.27686,-0.059083,-22.466769,-66.383272,27.639211
1784322711.1356,14:11:51.135,25,false,0.564325,-0.274414,0.62854,0.459534,0.956558,-0.292973,-0.059083,-22.388399,-66.384451,27.686612
1784322711.1668,14:11:51.166,26,false,0.564407,-0.27417,0.628662,0.459412,0.968765,-0.271977,-0.060548,-22.452451,-66.430373,27.684412
1784322711.1981,14:11:51.198,27,false,0.564469,-0.273865,0.628784,0.459351,0.963882,-0.291508,-0.067872,-22.554959,-66.471703,27.757201
1784322711.2294,14:11:51.229,28,false,0.56444,-0.273926,0.628784,0.459351,0.966812,-0.280278,-0.058595,-22.527585,-66.5089,27.673172
1784322711.2608,14:11:51.260,29,false,0.564333,-0.273865,0.628906,0.459351,0.960952,-0.285649,-0.054688,-22.413226,-66.497515,27.657362
1784322711.2921,14:11:51.292,30,false,0.564345,-0.273804,0.628967,0.45929,0.966323,-0.271977,-0.05713,-22.340211,-66.547085,27.747809
1784322711.3235,14:11:51.323,31,false,0.5642,-0.273682,0.62915,0.45929,0.956558,-0.283207,-0.049805,-22.379173,-66.472066,27.66472
1784322711.3548,14:11:51.354,0,false,0.564331,-0.273438,0.629272,0.459106,0.972671,-0.281254,-0.057618,-22.204886,-66.419504,27.754431
1784322711.3859,14:11:51.385,1,false,0.564292,-0.273376,0.629333,0.459106,0.957534,-0.281743,-0.056641,-22.332151,-66.432013,27.850126
1784322711.4171,14:11:51.417,2,false,0.564256,-0.273132,0.629517,0.459045,0.966323,-0.274418,-0.052247,-22.29715,-66.443271,27.861482
1784322711.4482,14:11:51.448,3,false,0.564278,-0.27301,0.629639,0.458923,0.957534,-0.280766,-0.041505,-22.280604,-66.498265,27.856748
1784322711.4793,14:11:51.479,4,false,0.564328,-0.27301,0.629639,0.458862,0.976577,-0.278325,-0.066407,-22.131127,-66.532806,27.762765
1784322711.5105,14:11:51.510,5,false,0.564051,-0.273621,0.629578,0.458923,0.974136,-0.273442,-0.059571,-22.071368,-66.489123,27.67818
1784322711.5416,14:11:51.541,6,false,0.563942,-0.273743,0.629578,0.458984,0.959487,-0.295903,-0.049805,-22.152169,-66.434855,27.617007
1784322711.573,14:11:51.573,7,false,0.564191,-0.273499,0.629639,0.45874,0.974136,-0.280278,-0.055177,-22.209936,-66.475736,27.696536
1784322711.6043,14:11:51.604,8,false,0.564102,-0.273438,0.6297,0.458801,0.956558,-0.274418,-0.0542,-22.052572,-66.572345,27.708297
1784322711.6356,14:11:51.635,9,false,0.564173,-0.273254,0.629761,0.45874,0.965347,-0.277348,-0.066896,-22.135253,-66.554616,27.644113
1784322711.667,14:11:51.667,10,false,0.564112,-0.273315,0.6297,0.458862,0.978042,-0.272465,-0.063478,-22.045173,-66.628383,27.780747
1784322711.6983,14:11:51.698,11,false,0.564171,-0.273193,0.6297,0.458862,0.969253,-0.267582,-0.065431,-22.188409,-66.500374,27.724271
1784322711.7294,14:11:51.729,12,false,0.564162,-0.273071,0.629761,0.458862,0.971695,-0.272953,-0.06006,-22.27246,-66.579565,27.793074
1784322711.7606,14:11:51.760,13,false,0.564042,-0.273254,0.6297,0.458984,0.962905,-0.283696,-0.050782,-22.28829,-66.695699,27.720412
1784322711.7917,14:11:51.791,14,false,0.563941,-0.273193,0.629639,0.459229,0.975113,-0.272953,-0.060548,-22.182906,-66.635727,27.7896
1784322711.8229,14:11:51.822,15,false,0.563864,-0.273071,0.629761,0.459229,0.972183,-0.279301,-0.063478,-22.177784,-66.566798,27.866824
1784322711.854,14:11:51.854,16,false,0.564043,-0.272766,0.629822,0.459106,0.974624,-0.276371,-0.058106,-22.307759,-66.669255,27.921372
1784322711.8851,14:11:51.885,17,false,0.564063,-0.272583,0.629883,0.459106,0.967788,-0.27393,-0.069337,-22.290152,-66.522204,27.940557
1784322711.9163,14:11:51.916,18,false,0.564104,-0.272461,0.629944,0.459045,0.959976,-0.277836,-0.063966,-22.289259,-66.524443,27.987731
1784322711.9476,14:11:51.947,19,false,0.564074,-0.272522,0.629944,0.459045,0.960952,-0.274907,-0.044434,-22.273501,-66.511504,27.940465
1784322711.979,14:11:51.979,20,false,0.564174,-0.272522,0.629944,0.458923,0.963394,-0.277836,-0.049317,-22.319135,-66.589583,27.987648
1784322712.0103,14:11:52.010,21,false,0.564361,-0.272583,0.629883,0.45874,0.965835,-0.27686,-0.059571,-22.30039,-66.525268,28.119836
1784322712.0416,14:11:52.041,22,false,0.564815,-0.2724,0.629822,0.458374,0.966812,-0.274418,-0.049805,-22.343335,-66.40757,27.999544
1784322712.073,14:11:52.073,23,false,0.564745,-0.272583,0.629761,0.458435,0.960464,-0.29102,-0.05127,-22.411893,-66.496042,27.96605
1784322712.1043,14:11:52.104,24,false,0.565087,-0.272644,0.629517,0.458313,0.973648,-0.274907,-0.067872,-22.488549,-66.441082,27.876091
1784322712.1356,14:11:52.135,25,false,0.565457,-0.272888,0.629211,0.45813,0.98439,-0.265141,-0.068849,-22.512678,-66.481341,27.854942
1784322712.167,14:11:52.167,26,false,0.565693,-0.273193,0.629089,0.457825,0.966323,-0.272465,-0.050294,-22.489533,-66.442805,27.940586
1784322712.1981,14:11:52.198,27,false,0.565888,-0.273621,0.628906,0.457581,0.971206,-0.270512,-0.058106,-22.289256,-66.482891,27.838218
1784322712.2293,14:11:52.229,28,false,0.565963,-0.273987,0.628723,0.45752,0.974136,-0.265141,-0.061036,-22.288453,-66.414292,27.850765
1784322712.2604,14:11:52.260,29,false,0.566174,-0.274353,0.628418,0.457458,0.968765,-0.274907,-0.058595,-22.272776,-66.292738,27.877011
1784322712.2917,14:11:52.291,30,false,0.566329,-0.274414,0.628296,0.457397,0.964858,-0.264164,-0.062989,-22.258667,-66.30297,27.870724
1784322712.3231,14:11:52.323,31,false,0.566724,-0.27478,0.627869,0.457275,0.969253,-0.264164,-0.072267,-22.231015,-66.207502,27.954789
1784322712.3544,14:11:52.354,0,false,0.566859,-0.275085,0.627747,0.457092,0.968765,-0.261723,-0.059571,-22.131359,-66.091672,27.925771
1784322712.3858,14:11:52.385,1,false,0.566964,-0.275146,0.627625,0.457092,0.978042,-0.267094,-0.06836,-22.08653,-66.226688,27.884701
1784322712.4171,14:11:52.417,2,false,0.566935,-0.275208,0.627625,0.457092,0.962905,-0.278325,-0.073732,-22.105999,-66.183709,27.81783
1784322712.4484,14:11:52.448,3,false,0.566973,-0.275269,0.627563,0.457092,0.956558,-0.266117,-0.057618,-22.063706,-66.159982,27.787554
1784322712.4796,14:11:52.479,4,false,0.566932,-0.275391,0.627502,0.457153,0.96437,-0.268559,-0.066896,-22.05555,-66.273213,27.775259
1784322712.5109,14:11:52.510,5,false,0.566812,-0.275574,0.627441,0.457275,0.971695,-0.262699,-0.055665,-22.093072,-66.165766,27.779148
1784322712.542,14:11:52.542,6,false,0.566781,-0.275574,0.62738,0.457397,0.978042,-0.26807,-0.072755,-22.246471,-66.188695,27.67797
1784322712.5732,14:11:52.573,7,false,0.566781,-0.275574,0.62738,0.457397,0.966812,-0.269047,-0.058595,-22.249947,-66.149516,27.706542
1784322712.6043,14:11:52.604,8,false,0.566871,-0.275452,0.627441,0.457275,0.966323,-0.260746,-0.058595,-22.43252,-66.129209,27.687394
1784322712.6355,14:11:52.635,9,false,0.566812,-0.275574,0.627441,0.457275,0.966323,-0.263676,-0.058106,-22.312714,-66.095978,27.610346
1784322712.6666,14:11:52.666,10,false,0.566861,-0.275574,0.627441,0.457214,0.959976,-0.269047,-0.055665,-22.309565,-66.021209,27.690542
1784322712.6977,14:11:52.697,11,false,0.566943,-0.27533,0.627563,0.457092,0.969253,-0.275883,-0.070802,-22.366546,-66.058594,27.73281
1784322712.7291,14:11:52.729,12,false,0.566834,-0.275452,0.627563,0.457153,0.97023,-0.267094,-0.048341,-22.417829,-66.047378,27.561497
1784322712.7604,14:11:52.760,13,false,0.566684,-0.275635,0.627441,0.457397,0.9673,-0.262211,-0.063966,-22.583615,-66.082146,27.586762
1784322712.7918,14:11:52.791,14,false,0.566812,-0.275574,0.627441,0.457275,0.98146,-0.259281,-0.066896,-22.49356,-65.993806,27.6095
1784322712.8231,14:11:52.823,15,false,0.566806,-0.275574,0.627625,0.457031,0.959487,-0.258793,-0.067384,-22.412511,-66.033931,27.704734
1784322712.8544,14:11:52.854,16,false,0.566855,-0.275574,0.627625,0.45697,0.98732,-0.25684,-0.056641,-22.399383,-66.010228,27.65586
1784322712.8858,14:11:52.885,17,false,0.566706,-0.275818,0.627563,0.457092,0.977554,-0.25098,-0.061036,-22.432428,-66.093573,27.656734
1784322712.917,14:11:52.917,18,false,0.566618,-0.275757,0.627625,0.457153,0.963882,-0.272953,-0.0542,-22.536939,-66.288213,27.732291
1784322712.9481,14:11:52.948,19,false,0.566588,-0.275757,0.627563,0.457275,0.968276,-0.274418,-0.06006,-22.496413,-66.149359,27.845153
1784322712.9793,14:11:52.979,20,false,0.566719,-0.275513,0.627686,0.457092,0.973159,-0.264652,-0.061524,-22.45994,-66.09916,27.812145
1784322713.0104,14:11:53.010,21,false,0.566541,-0.275574,0.627686,0.457275,0.979995,-0.269535,-0.052247,-22.427115,-65.934349,27.707668
1784322713.0416,14:11:53.041,22,false,0.56662,-0.275513,0.627686,0.457214,0.981949,-0.269535,-0.064454,-22.472341,-65.935559,27.718316
1784322713.0729,14:11:53.072,23,false,0.56662,-0.275513,0.627686,0.457214,0.960952,-0.265629,-0.056641,-22.513045,-66.041324,27.757806
1784322713.1042,14:11:53.104,24,false,0.566593,-0.27533,0.627747,0.457275,0.964858,-0.27393,-0.072267,-22.564632,-66.091651,27.748486
1784322713.1356,14:11:53.135,25,false,0.5668,-0.275208,0.627747,0.457092,0.978042,-0.267582,-0.064942,-22.581153,-66.136945,27.814867
1784322713.1669,14:11:53.166,26,false,0.566987,-0.275024,0.627747,0.45697,0.979995,-0.257816,-0.063966,-22.55116,-66.058079,27.799841
1784322713.1983,14:11:53.198,27,false,0.567025,-0.275085,0.627686,0.45697,0.97023,-0.25391,-0.058106,-22.598935,-66.1815,27.741456
1784322713.2296,14:11:53.229,28,false,0.567015,-0.275208,0.627686,0.456909,0.967788,-0.258305,-0.064942,-22.537256,-66.02341,27.733771
1784322713.2609,14:11:53.260,29,false,0.567,-0.275452,0.627502,0.457031,0.959976,-0.266117,-0.069337,-22.526607,-65.866174,27.66704
1784322713.2921,14:11:53.292,30,false,0.566976,-0.275818,0.627319,0.457092,0.963394,-0.270512,-0.063966,-22.472161,-65.889155,27.696704
1784322713.3232,14:11:53.323,31,false,0.566807,-0.276001,0.627258,0.457275,0.9673,-0.262699,-0.063478,-22.468021,-65.939745,27.633679
1784322713.3543,14:11:53.354,0,false,0.566757,-0.276001,0.627258,0.457336,0.971695,-0.271977,-0.063966,-22.464295,-65.985276,27.651726
1784322713.3855,14:11:53.385,1,false,0.566667,-0.276123,0.627197,0.457458,0.95021,-0.266606,-0.062013,-22.356265,-65.951485,27.667967
1784322713.4166,14:11:53.416,2,false,0.566693,-0.276245,0.627075,0.45752,0.971206,-0.258305,-0.067384,-22.408576,-66.02575,27.682585
1784322713.4478,14:11:53.447,3,false,0.566611,-0.276489,0.626953,0.457642,0.968276,-0.25684,-0.065431,-22.380887,-66.06268,27.546203
1784322713.4791,14:11:53.479,4,false,0.566787,-0.276733,0.626953,0.457275,0.961929,-0.254887,-0.062013,-22.370921,-65.961333,27.632812
1784322713.5104,14:11:53.510,5,false,0.566758,-0.277283,0.626648,0.457397,0.985367,-0.257328,-0.058595,-22.257274,-65.94489,27.561223
1784322713.5418,14:11:53.541,6,false,0.566832,-0.277893,0.626221,0.45752,0.963882,-0.264164,-0.060548,-22.229762,-66.004861,27.422023
1784322713.5731,14:11:53.573,7,false,0.566845,-0.278564,0.625732,0.457764,0.948257,-0.261723,-0.058106,-22.160139,-65.909296,27.40142
1784322713.6045,14:11:53.604,8,false,0.567202,-0.278687,0.625488,0.457581,0.978531,-0.262211,-0.062013,-22.217109,-66.047595,27.457646
1784322713.6358,14:11:53.635,9,false,0.567392,-0.279358,0.625061,0.45752,0.979507,-0.254887,-0.067872,-22.358105,-66.082341,27.388619
1784322713.6669,14:11:53.666,10,false,0.567798,-0.27948,0.624817,0.457275,0.970718,-0.271489,-0.065919,-22.36537,-65.889305,27.401264
1784322713.6981,14:11:53.698,11,false,0.568199,-0.279907,0.624573,0.456848,0.975113,-0.250004,-0.070314,-22.29714,-65.865111,27.367783
1784322713.7292,14:11:53.729,12,false,0.568292,-0.28009,0.624451,0.456787,0.964858,-0.269047,-0.064942,-22.34041,-65.85829,27.472234
1784322713.7603,14:11:53.760,13,false,0.569185,-0.280151,0.624146,0.456055,0.990249,-0.256352,-0.07129,-22.274676,-65.837197,27.476518
1784322713.7915,14:11:53.791,14,false,0.569457,-0.28064,0.623901,0.45575,0.984878,-0.244633,-0.055177,-22.260377,-65.698583,27.510281
1784322713.8226,14:11:53.822,15,false,0.569911,-0.281494,0.623413,0.455322,0.962905,-0.249516,-0.072267,-22.382093,-65.738323,27.480852
1784322713.854,14:11:53.854,16,false,0.569992,-0.28241,0.622925,0.455322,0.977066,-0.250492,-0.062501,-22.416867,-65.774088,27.454366
1784322713.8853,14:11:53.885,17,false,0.570175,-0.283081,0.622498,0.455261,0.972183,-0.231937,-0.062013,-22.403303,-65.656739,27.430528
1784322713.9166,14:11:53.916,18,false,0.570415,-0.284302,0.621765,0.4552,0.964858,-0.244633,-0.058106,-22.301372,-65.581032,27.394121
1784322713.948,14:11:53.948,19,false,0.570441,-0.285217,0.621277,0.455261,0.980484,-0.258305,-0.058106,-22.284403,-65.587666,27.286585
1784322713.9791,14:11:53.979,20,false,0.570442,-0.28595,0.62085,0.455383,0.986343,-0.235843,-0.06836,-22.179408,-65.488959,27.249618
1784322714.0102,14:11:54.010,21,false,0.570333,-0.28717,0.620117,0.45575,0.977066,-0.231937,-0.071778,-22.38399,-65.474891,27.291117
1784322714.0414,14:11:54.041,22,false,0.5706,-0.287598,0.619629,0.455811,0.97023,-0.234379,-0.069337,-22.433529,-65.3426,27.193881
1784322714.0725,14:11:54.072,23,false,0.570851,-0.288818,0.618469,0.456299,0.971695,-0.228031,-0.072267,-22.567837,-65.343169,27.196092
1784322714.1037,14:11:54.103,24,false,0.571041,-0.289063,0.618225,0.456238,0.986831,-0.246586,-0.074708,-22.67376,-65.179188,27.332667
1784322714.1348,14:11:54.134,25,false,0.57088,-0.290466,0.61731,0.456787,0.975113,-0.232425,-0.071778,-22.784045,-65.016652,27.291091
1784322714.1659,14:11:54.165,26,false,0.571131,-0.291077,0.616699,0.456909,0.979019,-0.235843,-0.07422,-22.778624,-64.915231,27.253674
1784322714.1971,14:11:54.197,27,false,0.571101,-0.292175,0.615845,0.457397,0.970718,-0.220218,-0.069825,-22.938238,-64.838906,26.980736
1784322714.2284,14:11:54.228,28,false,0.571141,-0.292908,0.615051,0.457947,0.9673,-0.234867,-0.076173,-22.932352,-64.725352,26.884631
1784322714.2598,14:11:54.259,29,false,0.571246,-0.293152,0.614746,0.458069,0.979507,-0.232914,-0.07715,-22.867239,-64.787645,26.887859
1784322714.2911,14:11:54.291,30,false,0.571647,-0.293457,0.614319,0.457947,0.973159,-0.244144,-0.078614,-22.808637,-64.709125,26.965534
1784322714.3224,14:11:54.322,31,false,0.571996,-0.293701,0.614014,0.457764,0.986831,-0.239261,-0.069825,-22.815711,-64.578641,26.79618
1784322714.3538,14:11:54.353,0,false,0.57274,-0.294189,0.613586,0.457092,0.977554,-0.238285,-0.072267,-22.896847,-64.610744,26.7933
1784322714.3851,14:11:54.385,1,false,0.573355,-0.294861,0.613098,0.456543,0.982437,-0.229984,-0.069337,-22.984823,-64.684499,26.775753
1784322714.4164,14:11:54.416,2,false,0.574162,-0.295471,0.612549,0.455872,0.973648,-0.2168,-0.062013,-23.064002,-64.676108,26.78987
1784322714.4476,14:11:54.447,3,false,0.575536,-0.296387,0.611633,0.454773,0.988296,-0.221683,-0.083986,-22.985724,-64.638649,26.697897
1784322714.4787,14:11:54.478,4,false,0.576258,-0.297241,0.610901,0.454285,0.983902,-0.210452,-0.073732,-23.049859,-64.589982,26.600168
1784322714.5099,14:11:54.509,5,false,0.57683,-0.297913,0.610352,0.453857,0.988785,-0.207523,-0.073243,-23.047764,-64.531228,26.557074
1784322714.541,14:11:54.541,6,false,0.5776,-0.297974,0.610046,0.453247,0.983413,-0.208988,-0.081544,-23.105695,-64.523211,26.682781
1784322714.5723,14:11:54.572,7,false,0.577947,-0.297668,0.610229,0.452759,0.982925,-0.202152,-0.083986,-23.217648,-64.575811,26.631425
1784322714.6037,14:11:54.603,8,false,0.578137,-0.297546,0.610291,0.452515,0.982925,-0.206058,-0.083497,-23.213728,-64.563336,26.674928
1784322714.635,14:11:54.635,9,false,0.578277,-0.297302,0.610413,0.452332,0.974136,-0.215824,-0.079591,-23.314878,-64.641831,26.699126
1784322714.6663,14:11:54.666,10,false,0.578572,-0.296875,0.610657,0.451904,0.969741,-0.192386,-0.078614,-23.286282,-64.53303,26.750813
1784322714.6977,14:11:54.697,11,false,0.578789,-0.296448,0.61084,0.45166,0.969741,-0.21387,-0.071778,-23.454945,-64.43511,26.662746
1784322714.729,14:11:54.729,12,false,0.578845,-0.295959,0.611023,0.45166,1.003922,-0.194827,-0.077638,-23.681511,-64.451658,26.613394
1784322714.7604,14:11:54.760,13,false,0.578553,-0.295715,0.611328,0.451782,0.977066,-0.210941,-0.082033,-23.735882,-64.331968,26.434392
1784322714.7917,14:11:54.791,14,false,0.578501,-0.2948,0.612,0.451538,0.974136,-0.209964,-0.061036,-23.814724,-64.179384,26.512552
1784322714.8228,14:11:54.822,15,false,0.57813,-0.293884,0.61261,0.451782,0.971695,-0.214847,-0.07715,-23.751097,-64.176644,26.388496
1784322714.854,14:11:54.854,16,false,0.577745,-0.293213,0.613159,0.451965,0.966323,-0.228031,-0.071778,-23.723741,-64.009685,26.41143
1784322714.8851,14:11:54.885,17,false,0.577739,-0.292236,0.613586,0.452026,0.972671,-0.221683,-0.073243,-23.579489,-64.038868,26.31244
1784322714.9163,14:11:54.916,18,false,0.577365,-0.291321,0.614014,0.452515,0.977554,-0.229007,-0.084474,-23.629108,-64.124949,26.357934
1784322714.9474,14:11:54.947,19,false,0.577296,-0.290588,0.61438,0.452576,0.970718,-0.223148,-0.078614,-23.68872,-64.037929,26.309155
1784322714.9787,14:11:54.978,20,false,0.57712,-0.28949,0.614929,0.452759,0.989273,-0.232425,-0.087892,-23.592832,-64.139057,26.399839
1784322715.0101,14:11:55.010,21,false,0.5768,-0.289063,0.615295,0.452942,0.965835,-0.221195,-0.075196,-23.656071,-64.185211,26.376777
1784322715.0414,14:11:55.041,22,false,0.576548,-0.288635,0.615417,0.453369,0.972671,-0.229007,-0.078126,-23.53354,-64.286565,26.266299
1784322715.0727,14:11:55.072,23,false,0.576095,-0.288025,0.615723,0.453918,0.984878,-0.231449,-0.065431,-23.273724,-64.422645,26.271545
1784322715.1041,14:11:55.104,24,false,0.575715,-0.28772,0.615906,0.454346,0.975601,-0.224125,-0.087892,-23.294105,-64.410532,26.126728
1784322715.1354,14:11:55.135,25,false,0.575343,-0.287292,0.616272,0.45459,0.963394,-0.224613,-0.075685,-23.192817,-64.369723,26.10107
1784322715.1668,14:11:55.166,26,false,0.575186,-0.287415,0.616272,0.454712,0.973648,-0.232425,-0.07715,-23.221288,-64.362902,25.9733
1784322715.1979,14:11:55.197,27,false,0.575055,-0.286987,0.616638,0.454651,0.98146,-0.243656,-0.07129,-23.217005,-64.416579,26.052708
1784322715.229,14:11:55.229,28,false,0.574998,-0.286804,0.616821,0.45459,0.974136,-0.234867,-0.068849,-23.183242,-64.390119,26.124175
1784322715.2602,14:11:55.260,29,false,0.574902,-0.286804,0.616821,0.454712,0.984878,-0.234379,-0.070314,-23.182763,-64.366305,26.113726
1784322715.2913,14:11:55.291,30,false,0.574818,-0.286743,0.616882,0.454773,0.982437,-0.232425,-0.076661,-23.107563,-64.44955,26.208999
1784322715.3225,14:11:55.322,31,false,0.574857,-0.286499,0.617004,0.454712,0.962417,-0.237308,-0.065431,-23.039883,-64.494562,26.294744
1784322715.3538,14:11:55.353,0,false,0.575028,-0.286316,0.617065,0.454529,0.990249,-0.222171,-0.080079,-23.038786,-64.505165,26.356961
1784322715.3851,14:11:55.385,1,false,0.57512,-0.286194,0.617126,0.454407,0.974624,-0.229984,-0.07715,-23.172384,-64.619385,26.323233
1784322715.4165,14:11:55.416,2,false,0.575062,-0.28595,0.617249,0.454468,0.979507,-0.232425,-0.083497,-23.232806,-64.587598,26.307832
1784322715.4478,14:11:55.447,3,false,0.574871,-0.285583,0.617371,0.454773,0.975113,-0.247562,-0.075685,-23.182509,-64.708529,26.473417
1784322715.4789,14:11:55.478,4,false,0.574823,-0.285583,0.617371,0.454834,0.966323,-0.239261,-0.070314,-23.032566,-64.727643,26.457952
1784322715.5101,14:11:55.510,5,false,0.574804,-0.285461,0.61731,0.455017,0.978042,-0.239261,-0.074708,-23.151831,-64.864477,26.47394
1784322715.5414,14:11:55.541,6,false,0.574774,-0.285522,0.61731,0.455017,0.977554,-0.241215,-0.077638,-23.124586,-64.942766,26.428515
1784322715.5726,14:11:55.572,7,false,0.574873,-0.285156,0.617432,0.454956,0.975601,-0.251957,-0.07129,-23.219696,-64.863687,26.357724
1784322715.6037,14:11:55.603,8,false,0.574781,-0.285217,0.61731,0.4552,0.986831,-0.247562,-0.083009,-23.335202,-64.867285,26.353828
1784322715.6348,14:11:55.634,9,false,0.574604,-0.285217,0.617249,0.455505,0.966812,-0.246586,-0.082033,-23.080266,-64.810709,26.410136
1784322715.666,14:11:55.666,10,false,0.574429,-0.285278,0.617249,0.455688,0.963882,-0.247562,-0.086427,-23.090085,-64.774744,26.341183
1784322715.6971,14:11:55.697,11,false,0.57435,-0.285339,0.617249,0.45575,0.980484,-0.255375,-0.079591,-23.143783,-64.742375,26.338941
1784322715.7285,14:11:55.728,12,false,0.574471,-0.285095,0.617249,0.45575,0.989273,-0.237797,-0.087404,-23.14725,-64.758105,26.411692
1784322715.7598,14:11:55.759,13,false,0.574537,-0.285095,0.617188,0.45575,0.975601,-0.23975,-0.084962,-23.135417,-64.742354,26.387445
1784322715.7911,14:11:55.791,14,false,0.57416,-0.2854,0.617126,0.456116,0.984878,-0.248539,-0.074708,-23.124767,-64.728178,26.290854
1784322715.8225,14:11:55.822,15,false,0.573887,-0.285461,0.617126,0.456421,0.973648,-0.245121,-0.073732,-23.160043,-64.760281,26.428229
1784322715.8538,14:11:55.853,16,false,0.57357,-0.285645,0.617065,0.456787,0.972671,-0.229984,-0.06836,-23.072161,-64.789174,26.44719
1784322715.8851,14:11:55.885,17,false,0.573106,-0.285767,0.616943,0.457458,0.977066,-0.248051,-0.072755,-23.082791,-64.949762,26.404439
1784322715.9165,14:11:55.916,18,false,0.572481,-0.286011,0.616821,0.458252,0.977066,-0.258793,-0.080079,-23.18208,-64.899892,26.395872
1784322715.9476,14:11:55.947,19,false,0.57249,-0.285767,0.616699,0.458557,0.974136,-0.236332,-0.085939,-23.077041,-64.8251,26.358253
1784322715.9788,14:11:55.978,20,false,0.572325,-0.285706,0.616699,0.458801,0.973648,-0.230472,-0.083986,-22.967551,-64.742835,26.234673
1784322716.0099,14:11:56.009,21,false,0.571962,-0.285645,0.616882,0.459045,0.975601,-0.237308,-0.070314,-22.913872,-64.758518,26.213174
1784322716.041,14:11:56.041,22,false,0.571427,-0.285339,0.617065,0.459656,0.992203,-0.23682,-0.076173,-22.895469,-64.742726,26.074194
1784322716.0722,14:11:56.072,23,false,0.571208,-0.285217,0.617188,0.459839,0.97023,-0.264164,-0.061524,-22.89386,-64.758421,26.17342
1784322716.1035,14:11:56.103,24,false,0.571343,-0.284119,0.617615,0.459778,0.971695,-0.251469,-0.078614,-22.84755,-64.623007,26.232816
1784322716.1349,14:11:56.134,25,false,0.57126,-0.284058,0.617493,0.460083,0.986343,-0.253422,-0.087404,-22.790917,-64.695535,26.12178
1784322716.1662,14:11:56.166,26,false,0.571231,-0.283386,0.617737,0.460205,0.965835,-0.248539,-0.07715,-22.754902,-64.745857,26.081662
1784322716.1975,14:11:56.197,27,false,0.571199,-0.28302,0.617798,0.460388,0.972183,-0.246586,-0.081544,-22.767349,-64.716377,26.105372
1784322716.2289,14:11:56.228,28,false,0.57129,-0.282837,0.617798,0.460388,0.967788,-0.247074,-0.07715,-22.733691,-64.615075,26.066896
1784322716.2602,14:11:56.260,29,false,0.571375,-0.282532,0.617859,0.460388,0.968765,-0.25684,-0.074708,-22.763213,-64.688397,26.077128
1784322716.2913,14:11:56.291,30,false,0.571309,-0.282532,0.61792,0.460388,0.969253,-0.243168,-0.075196,-22.804737,-64.664663,25.996615
1784322716.3225,14:11:56.322,31,false,0.571259,-0.282532,0.61792,0.460449,0.975601,-0.248051,-0.083986,-22.76734,-64.762933,25.998922
1784322716.3536,14:11:56.353,0,false,0.571303,-0.28241,0.617981,0.460388,0.973159,-0.252934,-0.073243,-22.76359,-64.642022,25.881367
1784322716.3848,14:11:56.384,1,false,0.571254,-0.28241,0.617981,0.460449,0.965347,-0.248051,-0.078126,-22.834984,-64.637879,25.880245
1784322716.4159,14:11:56.415,2,false,0.571114,-0.281921,0.618469,0.460266,0.974624,-0.256352,-0.070802,-22.869331,-64.664059,25.968958
1784322716.4472,14:11:56.447,3,false,0.570997,-0.28186,0.618469,0.460449,0.976089,-0.248539,-0.085939,-22.825474,-64.792297,26.003938
1784322716.4786,14:11:56.478,4,false,0.57117,-0.281372,0.618713,0.460205,0.960952,-0.246586,-0.075196,-22.741141,-64.773127,26.095236
1784322716.5099,14:11:56.509,5,false,0.571072,-0.281067,0.618896,0.460266,0.971695,-0.25098,-0.080568,-22.710103,-64.815689,26.087681
1784322716.5413,14:11:56.541,6,false,0.571011,-0.280823,0.619019,0.460327,0.968765,-0.269535,-0.073243,-22.8018,-64.928764,26.110789
