Timestamp,Local time,Counter,Interpolated,Accelerometer X,Accelerometer Y,Accelerometer Z,Magnetometer X,Magnetometer Y,Magnetometer Z,Quaternion 0,Quaternion 1,Quaternion 2,Quaternion 3
1783984326.3778,16:12:06.377,18,false,0.245512,-0.50061,0.445435,0.7005,0.934585,-0.380377,-0.101076,-21.007844,-68.021487,21.796769
1783984326.4092,16:12:06.409,19,false,0.245791,-0.500427,0.445679,0.700378,0.934585,-0.380377,-0.097169,-21.030505,-68.023337,21.875122
1783984326.4405,16:12:06.440,20,false,0.245603,-0.500488,0.445618,0.700439,0.915053,-0.387213,-0.109377,-20.931269,-68.025001,21.840963
1783984326.4718,16:12:06.471,21,false,0.246019,-0.500183,0.445923,0.700317,0.913588,-0.3794,-0.100099,-20.886819,-67.906868,21.914897
1783984326.5029,16:12:06.502,22,false,0.246005,-0.500244,0.445862,0.700317,0.920424,-0.383307,-0.106447,-20.846813,-67.875317,21.87676
1783984326.534,16:12:06.534,23,false,0.245879,-0.500244,0.44574,0.700439,0.93019,-0.387701,-0.108888,-21.050069,-67.906737,21.648038
1783984326.5652,16:12:06.565,24,false,0.245664,-0.500427,0.445557,0.7005,0.930678,-0.375006,-0.114748,-21.11337,-67.890154,21.516956
1783984326.5965,16:12:06.596,25,false,0.245463,-0.500549,0.445435,0.700562,0.920912,-0.375982,-0.091798,-21.140432,-67.845321,21.578429
1783984326.6277,16:12:06.627,26,false,0.245463,-0.500549,0.445435,0.700562,0.919448,-0.374029,-0.109377,-21.32928,-67.894694,21.573939
1783984326.6588,16:12:06.658,27,false,0.245789,-0.500366,0.445557,0.7005,0.936538,-0.373541,-0.097658,-21.245029,-67.909223,21.539991
1783984326.6899,16:12:06.689,28,false,0.245587,-0.500488,0.445435,0.700562,0.936538,-0.38233,-0.109377,-21.39351,-67.922298,21.464576
1783984326.7213,16:12:06.721,29,false,0.245184,-0.500732,0.44519,0.700684,0.917494,-0.377447,-0.097169,-21.377604,-67.963974,21.441564
1783984326.7526,16:12:06.752,30,false,0.245281,-0.500793,0.445068,0.700684,0.927749,-0.372564,-0.100587,-21.318428,-68.076251,21.241407
1783984326.784,16:12:06.784,31,false,0.245029,-0.500854,0.444946,0.700806,0.924819,-0.381353,-0.10547,-21.280123,-68.117486,21.225758
1783984326.8153,16:12:06.815,0,false,0.245001,-0.500977,0.444824,0.700806,0.933608,-0.379889,-0.102541,-21.200787,-67.990104,21.121951
1783984326.8464,16:12:06.846,1,false,0.244406,-0.501282,0.444519,0.700989,0.926284,-0.384283,-0.113771,-21.174246,-67.935276,20.998616
1783984326.8776,16:12:06.877,2,false,0.244342,-0.501282,0.444458,0.70105,0.924819,-0.38233,-0.109865,-21.225128,-67.9607,21.067062
1783984326.9087,16:12:06.908,3,false,0.24467,-0.501099,0.44458,0.700989,0.921401,-0.374029,-0.102052,-21.226061,-67.923767,21.218386
1783984326.9399,16:12:06.939,4,false,0.24467,-0.501099,0.44458,0.700989,0.924331,-0.3794,-0.095216,-21.256808,-68.040065,21.324669
1783984326.971,16:12:06.971,5,false,0.244873,-0.500977,0.444702,0.700928,0.928725,-0.375494,-0.116213,-21.149896,-68.05501,21.405371
1783984327.0021,16:12:07.002,6,false,0.244684,-0.501038,0.444641,0.700989,0.929213,-0.387701,-0.103029,-21.11349,-68.053507,21.463049
1783984327.0333,16:12:07.033,7,false,0.24467,-0.501099,0.44458,0.700989,0.920424,-0.382818,-0.111818,-21.065771,-68.171785,21.350466
1783984327.0646,16:12:07.064,8,false,0.244592,-0.50116,0.444458,0.70105,0.928237,-0.374517,-0.106447,-21.00787,-68.21842,21.338865
1783984327.096,16:12:07.096,9,false,0.244514,-0.501221,0.444336,0.701111,0.929702,-0.381353,-0.106935,-21.045483,-68.095899,21.373286
1783984327.1273,16:12:07.127,10,false,0.24497,-0.501038,0.44458,0.700928,0.925795,-0.385748,-0.104494,-21.213918,-67.970676,21.493987
1783984327.1586,16:12:07.158,11,false,0.24497,-0.501038,0.44458,0.700928,0.929213,-0.381842,-0.107912,-21.230926,-68.067329,21.512895
1783984327.19,16:12:07.190,12,false,0.24525,-0.500854,0.444824,0.700806,0.925307,-0.378912,-0.09424,-21.231279,-68.124409,21.559821
1783984327.2211,16:12:07.221,13,false,0.245076,-0.500854,0.444824,0.700867,0.927749,-0.383307,-0.117189,-21.24655,-68.235597,21.51233
1783984327.2523,16:12:07.252,14,false,0.245012,-0.500854,0.444763,0.700928,0.928725,-0.380865,-0.100587,-21.275248,-68.216035,21.51445
1783984327.2834,16:12:07.283,15,false,0.245076,-0.500854,0.444824,0.700867,0.929213,-0.384283,-0.103029,-21.166492,-68.213383,21.471497
1783984327.3145,16:12:07.314,16,false,0.244887,-0.500916,0.444763,0.700928,0.928237,-0.386236,-0.109865,-21.173288,-68.196043,21.373024
1783984327.3457,16:12:07.345,17,false,0.244781,-0.501099,0.444519,0.700989,0.920912,-0.383307,-0.118654,-21.11959,-68.150529,21.299351
1783984327.3768,16:12:07.376,18,false,0.244984,-0.500977,0.444641,0.700928,0.923842,-0.374517,-0.101564,-21.101169,-68.229197,21.307815
1783984327.4082,16:12:07.408,19,false,0.245123,-0.500854,0.444702,0.700928,0.932143,-0.377935,-0.110842,-21.00982,-68.225229,21.464972
1783984327.4393,16:12:07.439,20,false,0.245339,-0.500671,0.444885,0.700867,0.921889,-0.370123,-0.1084,-20.987422,-68.206704,21.576505
1783984327.4707,16:12:07.470,21,false,0.245527,-0.50061,0.444946,0.700806,0.92726,-0.368658,-0.100587,-20.967264,-68.219939,21.5423
1783984327.502,16:12:07.502,22,false,0.245325,-0.500732,0.444824,0.700867,0.928725,-0.371099,-0.10547,-20.859398,-67.992589,21.556377
1783984327.5333,16:12:07.533,23,false,0.245499,-0.500732,0.444824,0.700806,0.920912,-0.3794,-0.103029,-20.866996,-67.937513,21.613908
1783984327.5647,16:12:07.564,24,false,0.245389,-0.500732,0.444885,0.700806,0.919448,-0.378424,-0.104494,-20.873835,-68.037482,21.590916
1783984327.5958,16:12:07.595,25,false,0.245513,-0.500671,0.444885,0.700806,0.924331,-0.390631,-0.111818,-20.909897,-68.037732,21.689855
1783984327.627,16:12:07.627,26,false,0.245541,-0.500549,0.445007,0.700806,0.923842,-0.371588,-0.104005,-20.97226,-68.037957,21.719084
1783984327.6581,16:12:07.658,27,false,0.245651,-0.500549,0.444946,0.700806,0.929213,-0.383307,-0.097658,-20.893803,-68.053113,21.790252
1783984327.6892,16:12:07.689,28,false,0.245665,-0.500488,0.445007,0.700806,0.929213,-0.378912,-0.114748,-20.868053,-67.991984,21.824395
1783984327.7204,16:12:07.720,29,false,0.245867,-0.500366,0.445129,0.700745,0.929213,-0.377447,-0.110842,-21.099093,-67.936968,21.929893
1783984327.7515,16:12:07.751,30,false,0.246332,-0.500122,0.445435,0.700562,0.92726,-0.373053,-0.103517,-21.262167,-67.977177,21.935119
1783984327.7827,16:12:07.782,31,false,0.246054,-0.500305,0.44519,0.700684,0.93019,-0.381842,-0.104982,-21.184627,-68.043272,21.939821
1783984327.8138,16:12:07.813,0,false,0.246068,-0.500244,0.445251,0.700684,0.925307,-0.374517,-0.104494,-21.204564,-68.087805,21.914146
1783984327.8451,16:12:07.845,1,false,0.246082,-0.500183,0.445313,0.700684,0.928237,-0.376471,-0.108888,-21.102876,-68.097976,21.9359
1783984327.8765,16:12:07.876,2,false,0.245894,-0.500244,0.445251,0.700745,0.91603,-0.382818,-0.100099,-21.130988,-68.137038,21.850802
1783984327.9078,16:12:07.907,3,false,0.245867,-0.500366,0.445129,0.700745,0.937514,-0.371099,-0.107424,-21.156288,-68.142286,21.87889
1783984327.9392,16:12:07.939,4,false,0.246041,-0.500366,0.445129,0.700684,0.920912,-0.377447,-0.108888,-21.104289,-68.221778,21.799493
1783984327.9705,16:12:07.970,5,false,0.246118,-0.500305,0.445251,0.700623,0.924331,-0.380865,-0.098634,-21.13226,-68.17369,21.728035
1783984328.0018,16:12:08.001,6,false,0.246118,-0.500305,0.445251,0.700623,0.932143,-0.377935,-0.104494,-21.022849,-68.160319,21.708585
1783984328.0332,16:12:08.033,7,false,0.245994,-0.500366,0.445251,0.700623,0.929213,-0.372076,-0.090822,-21.16364,-68.163239,21.526587
1783984328.0643,16:12:08.064,8,false,0.245729,-0.500488,0.445068,0.700745,0.925795,-0.3794,-0.107912,-21.140814,-68.121005,21.512328
1783984328.0955,16:12:08.095,9,false,0.245916,-0.500427,0.445129,0.700684,0.926284,-0.376471,-0.10547,-21.12027,-68.202626,21.469587
1783984328.1268,16:12:08.126,10,false,0.24593,-0.500366,0.44519,0.700684,0.919936,-0.375006,-0.096193,-21.012058,-68.186361,21.446074
1783984328.1579,16:12:08.157,11,false,0.245916,-0.500427,0.445129,0.700684,0.919448,-0.375006,-0.102052,-21.138975,-68.231538,21.454819
1783984328.1891,16:12:08.189,12,false,0.245839,-0.500488,0.445007,0.700745,0.928725,-0.386236,-0.104494,-21.223292,-68.272197,21.328106
1783984328.2204,16:12:08.220,13,false,0.245651,-0.500549,0.444946,0.700806,0.917494,-0.391608,-0.101076,-21.179547,-68.204114,21.423418
1783984328.2518,16:12:08.251,14,false,0.245715,-0.500549,0.445007,0.700745,0.93019,-0.378424,-0.102052,-21.125222,-68.307331,21.314798
1783984328.2831,16:12:08.283,15,false,0.245701,-0.50061,0.444946,0.700745,0.925307,-0.378424,-0.101564,-21.136145,-68.534811,21.336672
1783984328.3144,16:12:08.314,16,false,0.245577,-0.500671,0.444946,0.700745,0.921889,-0.374517,-0.101076,-21.145976,-68.515236,21.401219
1783984328.3458,16:12:08.345,17,false,0.245668,-0.500549,0.445129,0.700684,0.925795,-0.38233,-0.095216,-21.184732,-68.527525,21.459312
1783984328.3769,16:12:08.376,18,false,0.246195,-0.500244,0.445374,0.700562,0.934096,-0.381842,-0.120607,-21.114935,-68.613355,21.616272
1783984328.4081,16:12:08.408,19,false,0.246395,-0.500122,0.445496,0.7005,0.922866,-0.385748,-0.097169,-20.977348,-68.556018,21.578091
1783984328.4392,16:12:08.439,20,false,0.246007,-0.500305,0.445313,0.700623,0.923354,-0.369635,-0.111818,-20.973151,-68.369829,21.528773
1783984328.4703,16:12:08.470,21,false,0.245994,-0.500366,0.445251,0.700623,0.923354,-0.38233,-0.098634,-20.969374,-68.456475,21.514295
1783984328.5015,16:12:08.501,22,false,0.245875,-0.50061,0.444946,0.700684,0.934585,-0.372564,-0.101076,-20.876251,-68.414825,21.411542
1783984328.5326,16:12:08.532,23,false,0.245765,-0.50061,0.445007,0.700684,0.937026,-0.372076,-0.104494,-20.807395,-68.347433,21.408787
1783984328.5638,16:12:08.563,24,false,0.245535,-0.500854,0.444763,0.700745,0.922866,-0.378424,-0.100099,-21.014593,-68.152195,21.331539
1783984328.5951,16:12:08.595,25,false,0.245081,-0.501038,0.444519,0.700928,0.925795,-0.381842,-0.09424,-20.991718,-68.096112,21.247061
1783984328.6264,16:12:08.626,26,false,0.244956,-0.501099,0.444519,0.700928,0.924331,-0.376959,-0.101564,-20.941222,-67.970868,21.200939
1783984328.6578,16:12:08.657,27,false,0.245319,-0.501038,0.44458,0.700806,0.929702,-0.383795,-0.100587,-21.060269,-68.067502,21.039798
1783984328.6891,16:12:08.689,28,false,0.245005,-0.50116,0.444519,0.700867,0.93312,-0.382818,-0.099611,-21.122549,-68.004934,21.178895
1783984328.7205,16:12:08.720,29,false,0.245333,-0.500977,0.444641,0.700806,0.934096,-0.383307,-0.104494,-21.133739,-68.113116,21.25922
1783984328.7518,16:12:08.751,30,false,0.245144,-0.501038,0.44458,0.700867,0.916518,-0.376471,-0.108888,-21.188672,-68.075894,21.196928
1783984328.7829,16:12:08.782,31,false,0.245066,-0.501099,0.444458,0.700928,0.921401,-0.377447,-0.113283,-21.282974,-67.937718,21.245542
1783984328.8141,16:12:08.814,0,false,0.245269,-0.500977,0.44458,0.700867,0.926772,-0.375006,-0.107912,-21.397753,-67.918037,21.364064
1783984328.8452,16:12:08.845,1,false,0.245582,-0.500854,0.444641,0.700806,0.931655,-0.386236,-0.098634,-21.381423,-67.960138,21.425872
1783984328.8764,16:12:08.876,2,false,0.245638,-0.50061,0.444885,0.700806,0.914565,-0.385748,-0.103517,-21.321864,-68.072799,21.436638
1783984328.9075,16:12:08.907,3,false,0.245665,-0.500488,0.445007,0.700806,0.932631,-0.375982,-0.112306,-21.343031,-68.099425,21.41642
1783984328.9387,16:12:08.938,4,false,0.245839,-0.500488,0.445007,0.700745,0.921889,-0.369635,-0.107912,-21.182635,-68.153296,21.428131
1783984328.97,16:12:08.970,5,false,0.245651,-0.500549,0.444946,0.700806,0.923354,-0.377935,-0.104982,-21.008371,-68.156918,21.423717
1783984329.0013,16:12:09.001,6,false,0.245839,-0.500488,0.445007,0.700745,0.923354,-0.393561,-0.100587,-21.045933,-68.190085,21.494514
1783984329.0327,16:12:09.032,7,false,0.245977,-0.500366,0.445068,0.700745,0.928237,-0.376959,-0.100099,-21.064785,-68.23489,21.543277
1783984329.064,16:12:09.064,8,false,0.246178,-0.500244,0.44519,0.700684,0.925307,-0.376959,-0.103029,-21.021937,-68.26026,21.497441
1783984329.0954,16:12:09.095,9,false,0.245977,-0.500366,0.445068,0.700745,0.918959,-0.376471,-0.1084,-21.043189,-68.163463,21.396374
1783984329.1265,16:12:09.126,10,false,0.245698,-0.500549,0.444824,0.700867,0.928237,-0.372564,-0.098146,-21.077269,-68.091299,21.320366
1783984329.1578,16:12:09.157,11,false,0.245496,-0.500671,0.444702,0.700928,0.929213,-0.376471,-0.092775,-21.242526,-68.116075,21.386544
1783984329.189,16:12:09.189,12,false,0.245496,-0.500671,0.444702,0.700928,0.934585,-0.380865,-0.096193,-21.16695,-68.063604,21.401243
1783984329.2201,16:12:09.220,13,false,0.245574,-0.50061,0.444824,0.700867,0.920424,-0.373541,-0.110842,-21.1737,-68.121057,21.56401
1783984329.2513,16:12:09.251,14,false,0.245762,-0.500549,0.444885,0.700806,0.928725,-0.378424,-0.111818,-21.075099,-68.127903,21.695547
1783984329.2824,16:12:09.282,15,false,0.245776,-0.500488,0.444946,0.700806,0.919936,-0.387701,-0.114748,-20.971404,-68.149018,21.574669
1783984329.3135,16:12:09.313,16,false,0.245635,-0.500549,0.444763,0.700928,0.927749,-0.372564,-0.116213,-21.012663,-68.108206,21.480832
1783984329.3447,16:12:09.344,17,false,0.245433,-0.500671,0.444641,0.700989,0.924331,-0.373053,-0.104005,-21.109611,-68.131291,21.456194
1783984329.376,16:12:09.376,18,false,0.245482,-0.500732,0.444641,0.700928,0.934585,-0.376959,-0.098634,-21.137049,-68.167021,21.448974
1783984329.4074,16:12:09.407,19,false,0.24595,-0.500488,0.444946,0.700745,0.929213,-0.385748,-0.104982,-21.161744,-68.199179,21.592014
1783984329.4387,16:12:09.438,20,false,0.246352,-0.500244,0.44519,0.700623,0.925795,-0.371099,-0.100099,-21.169015,-68.213166,21.556258
1783984329.47,16:12:09.470,21,false,0.245991,-0.500305,0.445129,0.700745,0.918471,-0.38819,-0.107912,-21.190513,-68.240709,21.509124
1783984329.5014,16:12:09.501,22,false,0.246054,-0.500305,0.44519,0.700684,0.923354,-0.38819,-0.103517,-21.164999,-68.115959,21.57138
1783984329.5327,16:12:09.532,23,false,0.246041,-0.500366,0.445129,0.700684,0.918959,-0.370611,-0.10547,-21.261668,-68.078453,21.582549
1783984329.5639,16:12:09.563,24,false,0.246643,-0.5,0.445496,0.7005,0.923842,-0.368658,-0.115724,-21.184177,-68.074606,21.652417
1783984329.595,16:12:09.595,25,false,0.246533,-0.5,0.445557,0.7005,0.919448,-0.387213,-0.102052,-21.159297,-68.160866,21.655482
1783984329.6261,16:12:09.626,26,false,0.246269,-0.500122,0.445374,0.700623,0.929702,-0.382818,-0.106935,-21.106998,-68.11887,21.523656
1783984329.6573,16:12:09.657,27,false,0.246068,-0.500244,0.445251,0.700684,0.931167,-0.390143,-0.104494,-21.164605,-68.081073,21.584459
1783984329.6884,16:12:09.688,28,false,0.246178,-0.500244,0.44519,0.700684,0.919448,-0.377935,-0.107424,-21.276267,-68.076964,21.624228
1783984329.7196,16:12:09.719,29,false,0.246101,-0.500305,0.445068,0.700745,0.932631,-0.367193,-0.108888,-21.242178,-68.312527,21.525435
1783984329.7509,16:12:09.750,30,false,0.246101,-0.500305,0.445068,0.700745,0.938979,-0.376959,-0.108888,-21.271313,-68.285272,21.526245
1783984329.7822,16:12:09.782,31,false,0.246239,-0.500183,0.445129,0.700745,0.917494,-0.384771,-0.096681,-21.222766,-68.185973,21.631651
1783984329.8136,16:12:09.813,0,false,0.24653,-0.499939,0.445435,0.700623,0.930678,-0.384771,-0.110353,-21.014581,-68.186328,21.711562
1783984329.8449,16:12:09.844,1,false,0.24653,-0.499939,0.445435,0.700623,0.931655,-0.395026,-0.101564,-20.961799,-68.126831,21.589082
1783984329.8761,16:12:09.876,2,false,0.24658,-0.5,0.445435,0.700562,0.930678,-0.382818,-0.104494,-20.914296,-68.252731,21.658296
1783984329.9072,16:12:09.907,3,false,0.246656,-0.499939,0.445557,0.7005,0.921401,-0.370611,-0.112795,-20.961265,-68.425855,21.630866
1783984329.9383,16:12:09.938,4,false,0.246917,-0.499756,0.445618,0.7005,0.919448,-0.375494,-0.104982,-20.868954,-68.417175,21.665994
1783984329.9695,16:12:09.969,5,false,0.24718,-0.499634,0.445801,0.700378,0.943862,-0.379889,-0.100587,-20.950365,-68.31964,21.637794
1783984330.0006,16:12:10.000,6,false,0.247166,-0.499695,0.44574,0.700378,0.934096,-0.38819,-0.092287,-20.948867,-68.336536,21.612414
1783984330.0318,16:12:10.031,7,false,0.24718,-0.499634,0.445801,0.700378,0.93019,-0.383795,-0.099611,-20.947518,-68.396603,21.559664
1783984330.0629,16:12:10.062,8,false,0.24707,-0.499634,0.445862,0.700378,0.921889,-0.380865,-0.104982,-20.976211,-68.390848,21.482282
1783984330.0941,16:12:10.094,9,false,0.247269,-0.499512,0.445984,0.700317,0.926772,-0.378912,-0.104982,-21.031943,-68.355761,21.592083
1783984330.1254,16:12:10.125,10,false,0.247544,-0.499329,0.446228,0.700195,0.925795,-0.376959,-0.101564,-21.022287,-68.369045,21.541367
1783984330.1567,16:12:10.156,11,false,0.247853,-0.499207,0.446289,0.700134,0.931167,-0.374029,-0.103029,-21.043504,-68.336138,21.465814
1783984330.1881,16:12:10.188,12,false,0.247853,-0.499207,0.446289,0.700134,0.926772,-0.390143,-0.102052,-21.017737,-68.231753,21.517447
1783984330.2194,16:12:10.219,13,false,0.247641,-0.49939,0.446106,0.700195,0.926772,-0.369635,-0.103517,-21.054363,-68.15276,21.354564
1783984330.2508,16:12:10.250,14,false,0.24773,-0.499268,0.446289,0.700134,0.924331,-0.375006,-0.103517,-21.072372,-68.320928,21.417322
1783984330.2819,16:12:10.281,15,false,0.24773,-0.499268,0.446289,0.700134,0.927749,-0.388678,-0.109377,-21.08858,-68.247972,21.354174
1783984330.313,16:12:10.313,16,false,0.24773,-0.499268,0.446289,0.700134,0.93312,-0.382818,-0.110842,-21.07326,-68.421572,21.252479
1783984330.3442,16:12:10.344,17,false,0.247853,-0.499207,0.446289,0.700134,0.929702,-0.381842,-0.104494,-21.164149,-68.562859,21.205815
1783984330.3753,16:12:10.375,18,false,0.247468,-0.49939,0.446106,0.700256,0.939956,-0.375006,-0.100099,-21.216041,-68.450756,21.193725
1783984330.4065,16:12:10.406,19,false,0.247419,-0.499329,0.446106,0.700317,0.923354,-0.377935,-0.101076,-21.173021,-68.469493,21.227706
1783984330.4376,16:12:10.437,20,false,0.247322,-0.499268,0.446228,0.700317,0.9131,-0.39649,-0.110353,-21.268887,-68.441496,21.273242
1783984330.4687,16:12:10.468,21,false,0.247219,-0.499451,0.445984,0.700378,0.93312,-0.374517,-0.106447,-21.145813,-68.401344,21.164686
1783984330.5001,16:12:10.500,22,false,0.247419,-0.499329,0.446106,0.700317,0.928237,-0.381842,-0.106935,-21.12477,-68.410069,21.156709
1783984330.5314,16:12:10.531,23,false,0.247507,-0.499207,0.446289,0.700256,0.917494,-0.38233,-0.109865,-21.150692,-68.462783,21.284115
1783984330.5628,16:12:10.562,24,false,0.247782,-0.499023,0.446533,0.700134,0.931167,-0.390143,-0.096681,-21.129161,-68.465364,21.368872
1783984330.5941,16:12:10.594,25,false,0.247967,-0.498962,0.446594,0.700073,0.925307,-0.380377,-0.117189,-21.109782,-68.512549,21.340476
1783984330.6254,16:12:10.625,26,false,0.247769,-0.499084,0.446472,0.700134,0.914076,-0.386725,-0.103517,-21.167111,-68.360615,21.374736
1783984330.6568,16:12:10.656,27,false,0.247967,-0.498962,0.446594,0.700073,0.931655,-0.377935,-0.103517,-21.263569,-68.493043,21.375661
1783984330.6879,16:12:10.687,28,false,0.247743,-0.499207,0.44635,0.700134,0.925795,-0.382818,-0.097658,-21.290565,-68.328106,21.286772
1783984330.7191,16:12:10.719,29,false,0.247831,-0.499084,0.446533,0.700073,0.923354,-0.392584,-0.099611,-21.314862,-68.299293,21.356309
1783984330.7502,16:12:10.750,30,false,0.248152,-0.498901,0.446655,0.700012,0.926284,-0.3794,-0.113771,-21.247006,-68.288316,21.433847
1783984330.7813,16:12:10.781,31,false,0.248362,-0.498718,0.446838,0.699951,0.931167,-0.386236,-0.104982,-21.32052,-68.263482,21.443815
1783984330.8125,16:12:10.812,0,false,0.248362,-0.498718,0.446838,0.699951,0.921401,-0.375982,-0.10547,-21.192282,-68.271039,21.527556
1783984330.8438,16:12:10.843,1,false,0.248115,-0.498779,0.446716,0.700073,0.926772,-0.387213,-0.105959,-21.226407,-68.203072,21.453384
1783984330.8752,16:12:10.875,2,false,0.248485,-0.498657,0.446838,0.699951,0.929213,-0.376471,-0.092775,-21.197304,-68.276485,21.521215
1783984330.9065,16:12:10.906,3,false,0.24845,-0.498596,0.447021,0.69989,0.916518,-0.392584,-0.099611,-21.215973,-68.297696,21.507492
1783984330.9378,16:12:10.937,4,false,0.248485,-0.498657,0.446838,0.699951,0.920912,-0.370123,-0.107424,-21.247729,-68.152294,21.554958
1783984330.9692,16:12:10.969,5,false,0.248485,-0.498657,0.446838,0.699951,0.929702,-0.375982,-0.105959,-21.126771,-68.17097,21.552815
1783984331.0003,16:12:11.000,6,false,0.248423,-0.498657,0.446777,0.700012,0.920912,-0.3794,-0.11133,-21.137539,-68.187779,21.520979
1783984331.0315,16:12:11.031,7,false,0.248238,-0.498718,0.446716,0.700073,0.942397,-0.381353,-0.106447,-21.177139,-68.172999,21.492327
1783984331.0628,16:12:11.062,8,false,0.247732,-0.498962,0.446533,0.700195,0.928725,-0.389654,-0.100587,-21.152963,-68.05502,21.331955
1783984331.0941,16:12:11.094,9,false,0.247855,-0.498901,0.446533,0.700195,0.932631,-0.379889,-0.114748,-21.11625,-68.083423,21.426882
1783984331.1253,16:12:11.125,10,false,0.247904,-0.498962,0.446533,0.700134,0.926284,-0.379889,-0.106447,-21.172932,-67.944494,21.452501
1783984331.1564,16:12:11.156,11,false,0.247445,-0.499207,0.446228,0.700317,0.935073,-0.378424,-0.107912,-21.208992,-68.013858,21.430696
1783984331.1876,16:12:11.187,12,false,0.247555,-0.499207,0.446167,0.700317,0.914565,-0.376959,-0.093263,-21.136769,-67.941701,21.36621
1783984331.2187,16:12:11.218,13,false,0.24708,-0.499512,0.445801,0.7005,0.929213,-0.381842,-0.101564,-21.340938,-67.99639,21.338081
1783984331.25,16:12:11.250,14,false,0.246907,-0.499512,0.445801,0.700562,0.926772,-0.394537,-0.109865,-21.405059,-67.955888,21.357626
1783984331.2814,16:12:11.281,15,false,0.246797,-0.499512,0.445862,0.700562,0.923354,-0.389654,-0.104005,-21.387998,-67.889527,21.300447
1783984331.3127,16:12:11.312,16,false,0.247044,-0.49939,0.445862,0.700562,0.904311,-0.384771,-0.104005,-21.253013,-67.859711,21.323756
1783984331.3441,16:12:11.344,17,false,0.246871,-0.49939,0.445862,0.700623,0.921889,-0.377447,-0.106447,-21.251157,-67.877738,21.344733
1783984331.3753,16:12:11.375,18,false,0.246955,-0.499512,0.445679,0.700623,0.924819,-0.386236,-0.101564,-21.129856,-67.953777,21.258936
1783984331.4066,16:12:11.406,19,false,0.246865,-0.499634,0.445496,0.700684,0.934585,-0.360357,-0.103029,-21.080501,-67.977351,21.376119
1783984331.4379,16:12:11.437,20,false,0.246444,-0.499756,0.445496,0.700745,0.925795,-0.381842,-0.097169,-21.036081,-68.028475,21.27223
1783984331.469,16:12:11.469,21,false,0.246417,-0.499878,0.445374,0.700745,0.931655,-0.378424,-0.095216,-20.996103,-67.924949,21.313314
1783984331.5002,16:12:11.500,22,false,0.246831,-0.499573,0.445679,0.700623,0.934096,-0.382818,-0.098634,-20.975077,-68.145806,21.484874
1783984331.5313,16:12:11.531,23,false,0.247204,-0.499451,0.445801,0.7005,0.922866,-0.375494,-0.107912,-21.015968,-68.075408,21.624324
1783984331.5625,16:12:11.562,24,false,0.247031,-0.499451,0.445801,0.700562,0.919448,-0.381842,-0.109377,-21.082678,-68.116726,21.570383
1783984331.5936,16:12:11.593,25,false,0.247091,-0.49939,0.44574,0.700623,0.922866,-0.376471,-0.098634,-21.172625,-68.06419,21.536791
1783984331.6249,16:12:11.624,26,false,0.247002,-0.499512,0.445557,0.700684,0.925795,-0.390143,-0.105959,-21.133947,-68.091676,21.506557
1783984331.6563,16:12:11.656,27,false,0.247112,-0.499512,0.445496,0.700684,0.93312,-0.378912,-0.104494,-21.024367,-68.191184,21.434485
1783984331.6876,16:12:11.687,28,false,0.246752,-0.499573,0.445435,0.700806,0.931655,-0.3794,-0.109865,-21.015468,-68.220925,21.399528
1783984331.719,16:12:11.719,29,false,0.246925,-0.499573,0.445435,0.700745,0.91603,-0.383795,-0.106447,-21.037367,-68.20283,21.412929
1783984331.7503,16:12:11.750,30,false,0.246965,-0.49939,0.445618,0.700745,0.928237,-0.370123,-0.105959,-20.922491,-68.022053,21.484804
1783984331.7814,16:12:11.781,31,false,0.246925,-0.499573,0.445435,0.700745,0.930678,-0.3794,-0.099123,-20.92378,-67.993938,21.325185
1783984331.8126,16:12:11.812,0,false,0.246875,-0.499512,0.445435,0.700806,0.939467,-0.379889,-0.110353,-20.924939,-68.118172,21.360973
1783984331.8437,16:12:11.843,1,false,0.247062,-0.499451,0.445496,0.700745,0.925307,-0.369146,-0.093263,-21.000753,-68.050538,21.467952
1783984331.8749,16:12:11.874,2,false,0.247049,-0.499512,0.445435,0.700745,0.927749,-0.367193,-0.098634,-21.113846,-68.019574,21.534326
1783984331.906,16:12:11.906,3,false,0.246986,-0.499512,0.445374,0.700806,0.938979,-0.373053,-0.107912,-20.946461,-68.036568,21.444523
1783984331.9371,16:12:11.937,4,false,0.247062,-0.499451,0.445496,0.700745,0.911147,-0.380865,-0.104982,-21.079937,-68.096725,21.498286
1783984331.9683,16:12:11.968,5,false,0.247235,-0.499451,0.445496,0.700684,0.927749,-0.379889,-0.101564,-21.050527,-68.225635,21.546672
1783984331.9996,16:12:11.999,6,false,0.247511,-0.499268,0.44574,0.700562,0.921401,-0.369635,-0.113771,-21.024058,-68.341654,21.545358
1783984332.031,16:12:12.031,7,false,0.247138,-0.49939,0.445618,0.700684,0.924331,-0.375494,-0.113771,-21.075006,-68.236717,21.469406
1783984332.0623,16:12:12.062,8,false,0.247235,-0.499451,0.445496,0.700684,0.933608,-0.372564,-0.116701,-21.090951,-68.172182,21.52068
1783984332.0936,16:12:12.093,9,false,0.247448,-0.499268,0.445679,0.700623,0.934096,-0.371588,-0.104005,-21.120255,-68.129054,21.432242
1783984332.125,16:12:12.125,10,false,0.247262,-0.499329,0.445618,0.700684,0.913588,-0.381353,-0.109377,-21.086813,-68.224823,21.442371
1783984332.1563,16:12:12.156,11,false,0.247597,-0.499084,0.445801,0.700623,0.921889,-0.375982,-0.114748,-21.176347,-68.340923,21.526256
1783984332.1877,16:12:12.187,12,false,0.247584,-0.499146,0.44574,0.700623,0.91603,-0.38819,-0.099611,-21.182158,-68.340736,21.526984
1783984332.2188,16:12:12.218,13,false,0.247597,-0.499084,0.445801,0.700623,0.929702,-0.376471,-0.100587,-21.112618,-68.415338,21.602408
1783984332.2499,16:12:12.249,14,false,0.247673,-0.499023,0.445923,0.700562,0.920912,-0.381353,-0.104982,-21.124802,-68.377802,21.700197
1783984332.2811,16:12:12.281,15,false,0.24766,-0.499084,0.445862,0.700562,0.911147,-0.394537,-0.102052,-21.22549,-68.46365,21.668577
1783984332.3122,16:12:12.312,16,false,0.24761,-0.499023,0.445862,0.700623,0.914565,-0.380377,-0.102541,-21.256294,-68.346514,21.655072
1783984332.3434,16:12:12.343,17,false,0.247534,-0.499084,0.44574,0.700684,0.917006,-0.386725,-0.109865,-21.149433,-68.256045,21.657872
1783984332.3747,16:12:12.374,18,false,0.247919,-0.498901,0.445923,0.700562,0.920912,-0.373541,-0.107424,-21.09812,-68.324161,21.660392
1783984332.406,16:12:12.406,19,false,0.247995,-0.49884,0.446045,0.7005,0.933608,-0.375982,-0.104982,-21.111754,-68.295743,21.543029
1783984332.4374,16:12:12.437,20,false,0.247584,-0.499146,0.44574,0.700623,0.930678,-0.384771,-0.111818,-21.094116,-68.16549,21.452356
1783984332.4687,16:12:12.468,21,false,0.247471,-0.499084,0.445679,0.700745,0.917006,-0.3794,-0.113771,-21.123104,-68.167892,21.475428
1783984332.5001,16:12:12.500,22,false,0.247532,-0.499023,0.445618,0.700806,0.927749,-0.376959,-0.106935,-21.134239,-68.11024,21.481238
1783984332.5312,16:12:12.531,23,false,0.247744,-0.49884,0.445801,0.700745,0.920424,-0.381842,-0.110842,-21.084445,-68.192936,21.546283
1783984332.5623,16:12:12.562,24,false,0.247744,-0.49884,0.445801,0.700745,0.920424,-0.38526,-0.100099,-20.979815,-68.282318,21.410423
1783984332.5935,16:12:12.593,25,false,0.24778,-0.498962,0.44574,0.700684,0.922866,-0.370611,-0.102052,-21.020233,-68.123499,21.437688
1783984332.6246,16:12:12.624,26,false,0.247657,-0.499023,0.44574,0.700684,0.926284,-0.3794,-0.109865,-20.892117,-68.145055,21.372503
1783984332.6558,16:12:12.655,27,false,0.247532,-0.499023,0.445618,0.700806,0.935073,-0.376959,-0.115236,-20.941305,-68.02987,21.448421
1783984332.6869,16:12:12.686,28,false,0.248036,-0.498718,0.445679,0.700806,0.93019,-0.368658,-0.104982,-20.910804,-68.075743,21.441978
1783984332.7182,16:12:12.718,29,false,0.248209,-0.498718,0.445679,0.700745,0.920912,-0.358892,-0.112795,-20.8684,-68.072166,21.421226
1783984332.7496,16:12:12.749,30,false,0.248576,-0.498535,0.445679,0.700745,0.938491,-0.375982,-0.120607,-20.934913,-67.949317,21.402549
1783984332.7809,16:12:12.780,31,false,0.248404,-0.498535,0.445679,0.700806,0.931655,-0.367681,-0.110353,-20.905052,-67.823798,21.475463
1783984332.8123,16:12:12.812,0,false,0.24848,-0.498474,0.445801,0.700745,0.923842,-0.375006,-0.106935,-20.982854,-67.890278,21.496223
1783984332.8436,16:12:12.843,1,false,0.248652,-0.498474,0.445801,0.700684,0.927749,-0.363775,-0.109865,-21.008014,-67.860386,21.470046
1783984332.875,16:12:12.875,2,false,0.248438,-0.498596,0.446167,0.700439,0.926284,-0.380865,-0.113771,-21.045612,-67.8933,21.566118
1783984332.9063,16:12:12.906,3,false,0.24844,-0.498657,0.446289,0.700317,0.923842,-0.388678,-0.101564,-20.929912,-67.773383,21.577813
1783984332.9376,16:12:12.937,4,false,0.248331,-0.498657,0.44635,0.700317,0.918959,-0.387213,-0.092775,-20.915504,-67.82995,21.573385
1783984332.9688,16:12:12.968,5,false,0.248419,-0.498535,0.446533,0.700256,0.926772,-0.381353,-0.095705,-20.947399,-67.806091,21.5694
1783984332.9999,16:12:12.999,6,false,0.248481,-0.498535,0.446594,0.700195,0.935073,-0.379889,-0.108888,-20.91629,-67.919203,21.580767
1783984333.0311,16:12:13.031,7,false,0.248728,-0.498474,0.446716,0.700073,0.913588,-0.380865,-0.097658,-20.918198,-68.021004,21.531182
1783984333.0622,16:12:13.062,8,false,0.248965,-0.49823,0.447144,0.69989,0.921889,-0.387701,-0.114748,-20.949824,-68.052809,21.42674
1783984333.0933,16:12:13.093,9,false,0.249248,-0.497986,0.447449,0.699768,0.922866,-0.384283,-0.106447,-20.933426,-68.051526,21.586957
1783984333.1247,16:12:13.124,10,false,0.249078,-0.498047,0.447571,0.699707,0.929702,-0.374517,-0.096193,-20.963529,-68.050371,21.581615
1783984333.156,16:12:13.156,11,false,0.249249,-0.498047,0.447571,0.699646,0.925795,-0.3794,-0.093751,-21.170067,-68.049332,21.621668
1783984333.1874,16:12:13.187,12,false,0.249702,-0.497803,0.447876,0.699463,0.93312,-0.375982,-0.099123,-21.221368,-68.06335,21.67267
1783984333.2187,16:12:13.218,13,false,0.249581,-0.497864,0.447876,0.699463,0.924819,-0.380865,-0.096193,-21.222676,-67.986244,21.524171
1783984333.25,16:12:13.250,14,false,0.249238,-0.498169,0.447632,0.699524,0.929702,-0.382818,-0.097169,-21.164039,-68.006571,21.480246
1783984333.2812,16:12:13.281,15,false,0.249238,-0.498169,0.447632,0.699524,0.923842,-0.364752,-0.108888,-21.215942,-68.024866,21.440713
1783984333.3123,16:12:13.312,16,false,0.249422,-0.498108,0.447693,0.699463,0.912123,-0.380865,-0.093751,-21.098163,-68.086193,21.524764
1783984333.3435,16:12:13.343,17,false,0.249152,-0.498291,0.447449,0.699585,0.929213,-0.386725,-0.100587,-21.037023,-68.111479,21.525641
1783984333.3746,16:12:13.374,18,false,0.249152,-0.498291,0.447449,0.699585,0.915541,-0.379889,-0.104494,-21.101627,-68.119283,21.616153
1783984333.4057,16:12:13.405,19,false,0.249408,-0.498108,0.44751,0.699585,0.925307,-0.378424,-0.105959,-21.144818,-68.111352,21.652752
1783984333.4369,16:12:13.436,20,false,0.24942,-0.498047,0.447571,0.699585,0.925307,-0.384283,-0.098146,-20.959382,-67.954676,21.64083
1783984333.468,16:12:13.468,21,false,0.249628,-0.497864,0.447754,0.699524,0.925795,-0.384283,-0.118166,-20.882212,-68.05293,21.585239
1783984333.4992,16:12:13.499,22,false,0.249249,-0.498047,0.447571,0.699646,0.91603,-0.375006,-0.11426,-21.066975,-67.976865,21.62493
1783984333.5305,16:12:13.530,23,false,0.249336,-0.497925,0.447754,0.699585,0.922866,-0.372564,-0.103517,-21.203353,-67.998131,21.630744
1783984333.5618,16:12:13.561,24,false,0.249299,-0.498108,0.447571,0.699585,0.934096,-0.379889,-0.10547,-20.922341,-67.972408,21.576161
1783984333.5932,16:12:13.593,25,false,0.249078,-0.498047,0.447571,0.699707,0.928237,-0.383307,-0.104005,-20.804014,-68.03898,21.54199
1783984333.6245,16:12:13.624,26,false,0.248979,-0.49823,0.447327,0.699768,0.921401,-0.378912,-0.118166,-20.697519,-68.098895,21.40656
1783984333.6557,16:12:13.655,27,false,0.249004,-0.498108,0.447449,0.699768,0.910658,-0.393561,-0.106935,-20.646536,-68.107958,21.404303
1783984333.687,16:12:13.687,28,false,0.249004,-0.498108,0.447449,0.699768,0.927749,-0.376471,-0.103029,-20.750189,-68.22079,21.327503
1783984333.7181,16:12:13.718,29,false,0.249152,-0.497986,0.447693,0.699646,0.937514,-0.369635,-0.099611,-20.843477,-68.292432,21.437829
1783984333.7493,16:12:13.749,30,false,0.249605,-0.497742,0.447998,0.699463,0.922866,-0.38526,-0.114748,-20.882575,-68.222325,21.552076
1783984333.7804,16:12:13.780,31,false,0.249702,-0.497803,0.447876,0.699463,0.923842,-0.379889,-0.103517,-20.842994,-68.263906,21.445545
1783984333.8116,16:12:13.811,0,false,0.249531,-0.497803,0.447876,0.699524,0.918471,-0.378424,-0.104005,-20.777463,-68.361144,21.43939
1783984333.8427,16:12:13.842,1,false,0.249519,-0.497864,0.447815,0.699524,0.936049,-0.397955,-0.106935,-20.748393,-68.179489,21.493665
1783984333.874,16:12:13.874,2,false,0.249507,-0.497925,0.447754,0.699524,0.93019,-0.383307,-0.103517,-20.841861,-68.359938,21.33316
1783984333.9054,16:12:13.905,3,false,0.249127,-0.498108,0.447571,0.699646,0.92726,-0.380865,-0.11133,-20.925982,-68.342896,21.368151
1783984333.9367,16:12:13.936,4,false,0.24914,-0.498047,0.447632,0.699646,0.922377,-0.385748,-0.104494,-20.971783,-68.17802,21.369735
1783984333.9681,16:12:13.968,5,false,0.248809,-0.498291,0.447449,0.699707,0.920912,-0.383795,-0.095705,-21.102727,-68.164216,21.386115
1783984333.9994,16:12:13.999,6,false,0.248722,-0.498413,0.447266,0.699768,0.921889,-0.376471,-0.096681,-21.145807,-68.211607,21.29618
1783984334.0307,16:12:14.030,7,false,0.248415,-0.498535,0.447205,0.699829,0.932143,-0.385748,-0.103029,-21.229441,-68.224352,21.245146
1783984334.0621,16:12:14.062,8,false,0.248415,-0.498535,0.447205,0.699829,0.906264,-0.38233,-0.103029,-21.035543,-68.205915,21.273984
1783984334.0932,16:12:14.093,9,false,0.248599,-0.498474,0.447266,0.699768,0.924819,-0.369635,-0.111818,-21.070388,-68.353813,21.389662
1783984334.1244,16:12:14.124,10,false,0.248661,-0.498474,0.447327,0.699707,0.928237,-0.361822,-0.100099,-20.892395,-68.247661,21.374141
1783984334.1555,16:12:14.155,11,false,0.248574,-0.498596,0.447144,0.699768,0.929702,-0.384771,-0.09424,-20.926601,-68.077354,21.434942
1783984334.1867,16:12:14.186,12,false,0.248464,-0.498596,0.447205,0.699768,0.925307,-0.38233,-0.107912,-20.927478,-68.043709,21.399939
1783984334.2178,16:12:14.217,13,false,0.248574,-0.498596,0.447144,0.699768,0.919448,-0.369635,-0.101076,-20.913315,-67.998474,21.413299
1783984334.2491,16:12:14.249,14,false,0.248846,-0.498413,0.447388,0.699646,0.923842,-0.380377,-0.103517,-20.885613,-68.047486,21.485137
1783984334.2805,16:12:14.280,15,false,0.248661,-0.498474,0.447327,0.699707,0.921401,-0.375982,-0.098634,-20.995267,-67.897197,21.564746
1783984334.3118,16:12:14.311,16,false,0.248846,-0.498413,0.447388,0.699646,0.918959,-0.377935,-0.099611,-20.974324,-67.911475,21.711163
1783984334.3432,16:12:14.343,17,false,0.248932,-0.498291,0.447571,0.699585,0.917494,-0.385748,-0.104982,-20.89566,-67.86451,21.857892
1783984334.3745,16:12:14.374,18,false,0.249251,-0.498108,0.447693,0.699524,0.926284,-0.383307,-0.096193,-20.959447,-68.016642,21.870317
1783984334.4058,16:12:14.405,19,false,0.249446,-0.497986,0.447815,0.699463,0.930678,-0.36817,-0.102052,-21.076671,-68.033929,21.851593
1783984334.4372,16:12:14.437,20,false,0.24963,-0.497925,0.447876,0.699402,0.926772,-0.375006,-0.105959,-20.898049,-67.989673,21.864648
1783984334.4685,16:12:14.468,21,false,0.249459,-0.497925,0.447876,0.699463,0.932631,-0.38233,-0.106447,-20.812059,-68.09938,21.72686
1783984334.4997,16:12:14.499,22,false,0.249373,-0.498047,0.447693,0.699524,0.919448,-0.375982,-0.112795,-20.824391,-68.063532,21.617804
1783984334.5308,16:12:14.530,23,false,0.249189,-0.498108,0.447632,0.699585,0.924819,-0.385748,-0.098146,-20.805582,-68.1509,21.519654
1783984334.5619,16:12:14.561,24,false,0.249286,-0.498169,0.44751,0.699585,0.923354,-0.378912,-0.102052,-20.743793,-68.229531,21.47618
1783984334.5931,16:12:14.593,25,false,0.249299,-0.498108,0.447571,0.699585,0.926284,-0.38819,-0.105959,-20.792859,-68.270391,21.526777
1783984334.6242,16:12:14.624,26,false,0.249127,-0.498108,0.447571,0.699646,0.915541,-0.371099,-0.107912,-20.717388,-68.202488,21.527452
1783984334.6556,16:12:14.655,27,false,0.249433,-0.497986,0.447632,0.699585,0.939956,-0.387701,-0.112306,-20.888725,-68.126422,21.513106
1783984334.6869,16:12:14.686,28,false,0.249274,-0.497925,0.447693,0.699646,0.921889,-0.384771,-0.107912,-20.938252,-68.08787,21.604872
1783984334.7182,16:12:14.718,29,false,0.249383,-0.497925,0.447632,0.699646,0.92726,-0.377447,-0.102541,-20.908057,-68.127942,21.657553
1783984334.7496,16:12:14.749,30,false,0.24909,-0.497986,0.447632,0.699707,0.926284,-0.384771,-0.099123,-20.970604,-68.074284,21.615243
1783984334.7809,16:12:14.780,31,false,0.249004,-0.498108,0.447449,0.699768,0.921889,-0.369635,-0.109865,-20.72782,-68.175531,21.532303
1783984334.8121,16:12:14.812,0,false,0.249309,-0.497986,0.44751,0.699707,0.922377,-0.38233,-0.110842,-20.793438,-68.251699,21.622149
1783984334.8432,16:12:14.843,1,false,0.249518,-0.497803,0.447693,0.699646,0.933608,-0.380865,-0.110842,-20.867447,-68.110896,21.538518
1783984334.8745,16:12:14.874,2,false,0.249444,-0.497864,0.447571,0.699707,0.916518,-0.39942,-0.099611,-20.949009,-68.223435,21.523065
1783984334.9057,16:12:14.905,3,false,0.24926,-0.497925,0.44751,0.699768,0.929702,-0.3794,-0.103517,-20.992508,-68.220043,21.583927
1783984334.9368,16:12:14.936,4,false,0.249334,-0.497864,0.447632,0.699707,0.921889,-0.373053,-0.102052,-20.971841,-68.202037,21.623749
1783984334.968,16:12:14.968,5,false,0.249431,-0.497925,0.44751,0.699707,0.918959,-0.387701,-0.112306,-20.968195,-68.230692,21.569866
1783984334.9993,16:12:14.999,6,false,0.249518,-0.497803,0.447693,0.699646,0.93019,-0.387701,-0.106447,-21.159313,-68.226575,21.551279
1783984335.0306,16:12:15.030,7,false,0.249664,-0.49762,0.447815,0.699646,0.922866,-0.384283,-0.112795,-21.136919,-68.178008,21.609319
1783984335.062,16:12:15.062,8,false,0.249859,-0.497498,0.447937,0.699585,0.931167,-0.383307,-0.111818,-21.101811,-68.22402,21.646602
1783984335.0933,16:12:15.093,9,false,0.250103,-0.497437,0.448059,0.699463,0.939956,-0.377447,-0.10547,-21.085168,-68.22057,21.590434
1783984335.1247,16:12:15.124,10,false,0.250213,-0.497437,0.447998,0.699463,0.920912,-0.390631,-0.103029,-21.055235,-68.232418,21.584743
1783984335.156,16:12:15.156,11,false,0.250237,-0.497314,0.44812,0.699463,0.917494,-0.370123,-0.112795,-21.028296,-68.27299,21.654391
1783984335.1873,16:12:15.187,12,false,0.250042,-0.497437,0.447998,0.699524,0.939956,-0.372076,-0.110842,-20.944235,-68.219781,21.522675
1783984335.2187,16:12:15.218,13,false,0.250273,-0.497375,0.447937,0.699524,0.922377,-0.363775,-0.110842,-20.943349,-68.321431,21.613484
1783984335.2498,16:12:15.249,14,false,0.250163,-0.497375,0.447998,0.699524,0.926284,-0.380865,-0.096681,-20.912644,-68.338148,21.665304
1783984335.281,16:12:15.281,15,false,0.250114,-0.497314,0.447998,0.699585,0.914076,-0.38233,-0.1084,-20.899964,-68.1887,21.801665
1783984335.3121,16:12:15.312,16,false,0.250309,-0.497192,0.44812,0.699524,0.926284,-0.390143,-0.113771,-20.709105,-68.203736,21.774852
1783984335.3432,16:12:15.343,17,false,0.250052,-0.497314,0.447937,0.699646,0.929213,-0.381353,-0.116213,-20.836409,-68.247175,21.646043
1783984335.3744,16:12:15.374,18,false,0.250309,-0.497192,0.44812,0.699524,0.92726,-0.381842,-0.114748,-20.891168,-68.316179,21.769376
1783984335.4057,16:12:15.405,19,false,0.250659,-0.496826,0.448425,0.699463,0.928237,-0.391608,-0.109377,-20.895589,-68.33342,21.880376
1783984335.4371,16:12:15.437,20,false,0.251047,-0.496582,0.448669,0.699341,0.92726,-0.381842,-0.109865,-20.86966,-68.423707,21.935415
1783984335.4684,16:12:15.468,21,false,0.250926,-0.496643,0.448669,0.699341,0.928237,-0.369635,-0.092287,-20.801463,-68.400288,21.775596
1783984335.4997,16:12:15.499,22,false,0.250914,-0.496704,0.448608,0.699341,0.924331,-0.387213,-0.107912,-20.87467,-68.498841,21.751389
1783984335.5309,16:12:15.530,23,false,0.250841,-0.496765,0.448486,0.699402,0.929702,-0.374517,-0.110353,-20.76111,-68.452955,21.624927
1783984335.562,16:12:15.562,24,false,0.250853,-0.496704,0.448547,0.699402,0.922377,-0.375494,-0.109377,-20.614044,-68.411657,21.690556
1783984335.5932,16:12:15.593,25,false,0.250891,-0.496826,0.448486,0.699341,0.928725,-0.378424,-0.09424,-20.646178,-68.389443,21.689808
1783984335.6243,16:12:15.624,26,false,0.251012,-0.496765,0.448486,0.699341,0.924819,-0.373541,-0.104005,-20.630236,-68.414312,21.719042
1783984335.6555,16:12:15.655,27,false,0.251193,-0.496704,0.448547,0.69928,0.914076,-0.378424,-0.11426,-20.705612,-68.42174,21.835075
1783984335.6866,16:12:15.686,28,false,0.251193,-0.496704,0.448547,0.69928,0.923354,-0.377935,-0.117678,-20.57905,-68.473287,21.819875
1783984335.7179,16:12:15.717,29,false,0.251193,-0.496704,0.448547,0.69928,0.909682,-0.384283,-0.101076,-20.659544,-68.265464,21.806194
1783984335.7491,16:12:15.749,30,false,0.250939,-0.496826,0.448364,0.699402,0.920912,-0.379889,-0.098146,-20.672174,-68.168146,21.704159
1783984335.7804,16:12:15.780,31,false,0.250988,-0.496887,0.448364,0.699341,0.938491,-0.38233,-0.100099,-20.833079,-68.260007,21.761865
1783984335.8118,16:12:15.811,0,false,0.250806,-0.496948,0.448303,0.699402,0.915053,-0.380865,-0.107424,-20.813401,-68.133327,21.828755
1783984335.8431,16:12:15.843,1,false,0.250879,-0.496887,0.448425,0.699341,0.922377,-0.374517,-0.101564,-20.75083,-68.213715,21.784279
1783984335.8744,16:12:15.874,2,false,0.25094,-0.496887,0.448486,0.69928,0.931167,-0.389166,-0.099611,-20.918823,-67.986988,21.714343
1783984335.9057,16:12:15.905,3,false,0.250685,-0.497009,0.448303,0.699402,0.924819,-0.380377,-0.109377,-20.845709,-67.962379,21.711215
1783984335.937,16:12:15.937,4,false,0.251037,-0.496948,0.448364,0.69928,0.929702,-0.378912,-0.107424,-20.854676,-67.985093,21.678493
1783984335.9684,16:12:15.968,5,false,0.250928,-0.496948,0.448425,0.69928,0.932631,-0.381842,-0.101076,-20.892654,-68.050397,21.634089
1783984335.9995,16:12:15.999,6,false,0.250989,-0.496948,0.448486,0.699219,0.932631,-0.380377,-0.103517,-20.941788,-67.98954,21.534311
1783984336.0306,16:12:16.030,7,false,0.25111,-0.496887,0.448486,0.699219,0.927749,-0.379889,-0.106935,-20.986008,-68.039445,21.668817
1783984336.0618,16:12:16.061,8,false,0.251353,-0.496826,0.448608,0.699097,0.920424,-0.372564,-0.103517,-21.085622,-68.069406,21.804827
1783984336.0929,16:12:16.092,9,false,0.251098,-0.496948,0.448425,0.699219,0.921401,-0.369146,-0.103029,-21.100506,-68.066463,21.74779
1783984336.1243,16:12:16.124,10,false,0.25111,-0.496887,0.448486,0.699219,0.915541,-0.383795,-0.104494,-21.263439,-67.989046,21.726364
1783984336.1556,16:12:16.155,11,false,0.250661,-0.497131,0.448181,0.699402,0.928725,-0.385748,-0.111818,-21.290448,-67.844601,21.632312
1783984336.1869,16:12:16.186,12,false,0.250588,-0.497192,0.448059,0.699463,0.93312,-0.384771,-0.109865,-21.225033,-67.834231,21.60748
1783984336.2183,16:12:16.218,13,false,0.250588,-0.497192,0.448059,0.699463,0.931167,-0.378424,-0.107912,-21.16616,-67.750129,21.585131
1783984336.2496,16:12:16.249,14,false,0.250759,-0.497192,0.448059,0.699402,0.920424,-0.371099,-0.104494,-21.128128,-67.659483,21.65474
1783984336.281,16:12:16.281,15,false,0.25037,-0.497437,0.447815,0.699524,0.914565,-0.386236,-0.105959,-21.183622,-67.667625,21.552896
1783984336.3123,16:12:16.312,16,false,0.249967,-0.497742,0.44751,0.699646,0.915541,-0.382818,-0.104494,-21.113936,-67.659999,21.416375
1783984336.3436,16:12:16.343,17,false,0.250138,-0.497742,0.44751,0.699585,0.937026,-0.378424,-0.113771,-21.006358,-67.757812,21.398183
1783984336.3748,16:12:16.374,18,false,0.249943,-0.497864,0.447388,0.699646,0.927749,-0.389654,-0.107424,-21.148798,-67.83089,21.396764
1783984336.4059,16:12:16.405,19,false,0.250126,-0.497803,0.447449,0.699585,0.915541,-0.3794,-0.105959,-21.112502,-67.956476,21.335672
1783984336.4371,16:12:16.437,20,false,0.250187,-0.497803,0.44751,0.699524,0.918959,-0.374517,-0.107424,-21.21442,-67.830242,21.340504
1783984336.4684,16:12:16.468,21,false,0.250321,-0.497681,0.447571,0.699524,0.931167,-0.379889,-0.107424,-21.186516,-67.716631,21.494391
1783984336.4997,16:12:16.499,22,false,0.250333,-0.49762,0.447632,0.699524,0.923354,-0.377447,-0.113771,-21.161402,-67.763919,21.558121
1783984336.5311,16:12:16.531,23,false,0.250321,-0.497681,0.447571,0.699524,0.923842,-0.384771,-0.102541,-21.123846,-67.896202,21.630431
1783984336.5624,16:12:16.562,24,false,0.250516,-0.497559,0.447693,0.699463,0.921889,-0.377935,-0.104005,-21.03023,-67.880672,21.710464
1783984336.5938,16:12:16.593,25,false,0.250698,-0.497498,0.447754,0.699402,0.935561,-0.375494,-0.104494,-20.916068,-67.791926,21.707725
1783984336.6251,16:12:16.625,26,false,0.251148,-0.497253,0.448059,0.699219,0.919936,-0.375982,-0.11133,-20.798368,-67.816731,21.765075
1783984336.6562,16:12:16.656,27,false,0.251196,-0.497253,0.447937,0.69928,0.92726,-0.388678,-0.106935,-20.871885,-67.794194,21.712013
1783984336.6874,16:12:16.687,28,false,0.251002,-0.497375,0.447815,0.699341,0.924331,-0.381842,-0.108888,-20.908142,-67.744004,21.619395
1783984336.7185,16:12:16.718,29,false,0.250832,-0.497375,0.447815,0.699402,0.921401,-0.3794,-0.112795,-20.910865,-67.818463,21.565947
1783984336.7497,16:12:16.749,30,false,0.251026,-0.497253,0.447937,0.699341,0.929213,-0.383307,-0.101564,-20.838547,-67.855568,21.57766
1783984336.7808,16:12:16.780,31,false,0.251002,-0.497375,0.447815,0.699341,0.931167,-0.375494,-0.112795,-20.833277,-67.724471,21.573247
1783984336.8119,16:12:16.811,0,false,0.250698,-0.497498,0.447754,0.699402,0.926772,-0.384771,-0.104982,-20.948164,-67.756022,21.569275
1783984336.8431,16:12:16.843,1,false,0.250832,-0.497375,0.447815,0.699402,0.924331,-0.372076,-0.098634,-20.931931,-67.739556,21.64047
1783984336.8742,16:12:16.874,2,false,0.250674,-0.49762,0.447632,0.699402,0.923354,-0.383307,-0.099611,-21.051907,-67.859321,21.540053
1783984336.9056,16:12:16.905,3,false,0.250856,-0.497559,0.447693,0.699341,0.942885,-0.372564,-0.1084,-21.0253,-67.832525,21.644078
1783984336.9369,16:12:16.936,4,false,0.250747,-0.497559,0.447754,0.699341,0.93019,-0.381353,-0.115236,-21.016308,-67.793455,21.647977
1783984336.9683,16:12:16.968,5,false,0.250565,-0.49762,0.447693,0.699402,0.93019,-0.376959,-0.11426,-20.963353,-67.773246,21.606625
1783984336.9996,16:12:16.999,6,false,0.250844,-0.49762,0.447632,0.699341,0.929702,-0.374029,-0.097658,-20.930648,-67.91955,21.763808
1783984337.0309,16:12:17.030,7,false,0.251039,-0.497498,0.447754,0.69928,0.922866,-0.362799,-0.10547,-21.050752,-67.946547,21.725826
1783984337.0623,16:12:17.062,8,false,0.251184,-0.497314,0.447876,0.69928,0.920912,-0.381353,-0.115724,-21.084076,-68.000751,21.661735
1783984337.0936,16:12:17.093,9,false,0.251184,-0.497314,0.447876,0.69928,0.923842,-0.373541,-0.105959,-21.039298,-67.944859,21.633961
1783984337.1248,16:12:17.124,10,false,0.25145,-0.497131,0.44812,0.699158,0.919448,-0.378912,-0.1084,-20.939183,-68.014186,21.623918
1783984337.1559,16:12:17.155,11,false,0.251837,-0.496887,0.448364,0.699036,0.912612,-0.383307,-0.103029,-20.923849,-68.046673,21.61488
1783984337.187,16:12:17.187,12,false,0.251898,-0.496887,0.448425,0.698975,0.927749,-0.38526,-0.098146,-21.059586,-68.105819,21.606745
1783984337.2182,16:12:17.218,13,false,0.252151,-0.496765,0.448608,0.698853,0.932631,-0.388678,-0.098146,-21.241566,-68.144097,21.734008
1783984337.2493,16:12:17.249,14,false,0.252054,-0.496704,0.44873,0.698853,0.922377,-0.38233,-0.104494,-21.210947,-68.223408,21.773776
1783984337.2805,16:12:17.280,15,false,0.25185,-0.496887,0.448547,0.698914,0.923354,-0.390143,-0.103029,-21.138528,-68.205065,21.719844
1783984337.3118,16:12:17.311,16,false,0.251668,-0.496948,0.448486,0.698975,0.925795,-0.383307,-0.107424,-21.118213,-68.278279,21.686259
1783984337.3431,16:12:17.343,17,false,0.251668,-0.496948,0.448486,0.698975,0.930678,-0.380865,-0.105959,-21.084976,-68.284357,21.596217
1783984337.3745,16:12:17.374,18,false,0.251548,-0.497009,0.448486,0.698975,0.919936,-0.389654,-0.103517,-21.249462,-68.319734,21.664717
1783984337.4058,16:12:17.405,19,false,0.251657,-0.497009,0.448425,0.698975,0.929702,-0.384771,-0.097658,-21.247962,-68.246897,21.726368
1783984337.437,16:12:17.437,20,false,0.251717,-0.497009,0.448486,0.698914,0.925795,-0.375982,-0.115724,-21.366242,-68.196298,21.7669
1783984337.4681,16:12:17.468,21,false,0.251706,-0.49707,0.448425,0.698914,0.93312,-0.383307,-0.103517,-21.203525,-68.240481,21.638886
1783984337.4992,16:12:17.499,22,false,0.251646,-0.497131,0.448486,0.698853,0.919936,-0.379889,-0.104982,-21.057079,-68.325108,21.673212
1783984337.5304,16:12:17.530,23,false,0.251766,-0.49707,0.448486,0.698853,0.930678,-0.376959,-0.111818,-21.015001,-68.311549,21.64429
1783984337.5615,16:12:17.561,24,false,0.251646,-0.497131,0.448486,0.698853,0.917006,-0.376471,-0.1084,-21.081808,-68.329253,21.618261
1783984337.5927,16:12:17.592,25,false,0.251464,-0.497192,0.448425,0.698914,0.922866,-0.372564,-0.10547,-21.141934,-68.270418,21.624742
1783984337.6238,16:12:17.623,26,false,0.251441,-0.497314,0.448303,0.698914,0.923354,-0.372564,-0.093263,-21.181094,-68.202513,21.660482
1783984337.6549,16:12:17.654,27,false,0.251634,-0.497192,0.448425,0.698853,0.919936,-0.385748,-0.098146,-21.051846,-68.156352,21.662741
1783984337.6863,16:12:17.686,28,false,0.251646,-0.497131,0.448486,0.698853,0.921889,-0.370611,-0.095216,-20.935522,-68.114807,21.709635
1783984337.7176,16:12:17.717,29,false,0.251452,-0.497253,0.448364,0.698914,0.923842,-0.378424,-0.11133,-21.040184,-68.107324,21.617256
1783984337.749,16:12:17.749,30,false,0.25138,-0.497314,0.448242,0.698975,0.932143,-0.379889,-0.096681,-20.880165,-68.190312,21.564022
1783984337.7803,16:12:17.780,31,false,0.251646,-0.497131,0.448486,0.698853,0.931655,-0.380377,-0.102541,-20.855779,-68.190233,21.516111
1783984337.8114,16:12:17.811,0,false,0.251657,-0.49707,0.448547,0.698853,0.925795,-0.374029,-0.095216,-20.968416,-68.175207,21.443084
1783984337.8428,16:12:17.842,1,false,0.251476,-0.497131,0.448486,0.698914,0.93312,-0.376959,-0.113283,-21.009974,-68.326177,21.511944
1783984337.8741,16:12:17.874,2,false,0.251476,-0.497131,0.448486,0.698914,0.927749,-0.378424,-0.10547,-20.912791,-68.177926,21.558965
1783984337.9053,16:12:17.905,3,false,0.251923,-0.496887,0.448792,0.69873,0.937514,-0.373053,-0.103029,-20.944957,-68.298716,21.63119
1783984337.9364,16:12:17.936,4,false,0.251911,-0.496948,0.44873,0.69873,0.932143,-0.384771,-0.104982,-20.854276,-68.332658,21.621425
1783984337.9675,16:12:17.967,5,false,0.251923,-0.496887,0.448792,0.69873,0.928725,-0.371588,-0.102052,-20.907248,-68.393113,21.74722
1783984337.9987,16:12:17.998,6,false,0.252104,-0.496826,0.448853,0.698669,0.924331,-0.374517,-0.103029,-21.014738,-68.387707,21.725851
1783984338.03,16:12:18.030,7,false,0.252031,-0.496887,0.44873,0.69873,0.932631,-0.379889,-0.098146,-20.917079,-68.278165,21.811296
1783984338.0614,16:12:18.061,8,false,0.252031,-0.496887,0.44873,0.69873,0.919448,-0.370611,-0.103517,-20.694601,-68.299208,21.663889
1783984338.0927,16:12:18.092,9,false,0.251839,-0.497009,0.448608,0.698792,0.92726,-0.376959,-0.112306,-20.703725,-68.273285,21.576084
1783984338.124,16:12:18.124,10,false,0.252043,-0.496826,0.448792,0.69873,0.921401,-0.376959,-0.100587,-20.652121,-68.264908,21.631644
1783984338.1554,16:12:18.155,11,false,0.252163,-0.496765,0.448792,0.69873,0.921401,-0.379889,-0.111818,-20.560816,-68.122785,21.666694
1783984338.1867,16:12:18.186,12,false,0.252066,-0.496704,0.448914,0.69873,0.926284,-0.380865,-0.116213,-20.568365,-68.159365,21.668332
1783984338.2181,16:12:18.218,13,false,0.252175,-0.496704,0.448853,0.69873,0.936049,-0.3794,-0.106935,-20.634974,-68.072658,21.550175
1783984338.2494,16:12:18.249,14,false,0.25191,-0.496887,0.448608,0.698853,0.919936,-0.381353,-0.105959,-20.635106,-68.009574,21.608326
1783984338.2805,16:12:18.280,15,false,0.252114,-0.496704,0.448792,0.698792,0.921401,-0.389654,-0.106935,-20.635226,-68.057476,21.69057
1783984338.3117,16:12:18.311,16,false,0.252126,-0.496643,0.448853,0.698792,0.93019,-0.389654,-0.103029,-20.695149,-67.980957,21.88422
1783984338.3428,16:12:18.342,17,false,0.252114,-0.496704,0.448792,0.698792,0.921889,-0.379889,-0.107912,-20.629449,-67.986859,21.849151
1783984338.3742,16:12:18.374,18,false,0.252295,-0.496643,0.448853,0.69873,0.921401,-0.384283,-0.097658,-20.689949,-68.051987,21.892358
1783984338.4053,16:12:18.405,19,false,0.252367,-0.496582,0.448975,0.698669,0.914076,-0.369146,-0.101564,-20.834123,-68.095647,21.841522
1783984338.4367,16:12:18.436,20,false,0.251922,-0.496826,0.448669,0.698853,0.923842,-0.377935,-0.101564,-20.963879,-68.134942,21.765861
1783984338.468,16:12:18.468,21,false,0.25156,-0.496948,0.448547,0.698975,0.924331,-0.380377,-0.101076,-21.170383,-67.975907,21.78749
1783984338.4993,16:12:18.499,22,false,0.251741,-0.496887,0.448608,0.698914,0.925307,-0.394049,-0.094728,-21.281467,-68.04213,21.836863
1783984338.5307,16:12:18.530,23,false,0.251729,-0.496948,0.448547,0.698914,0.927749,-0.375982,-0.094728,-21.231904,-68.146592,21.731761
1783984338.562,16:12:18.562,24,false,0.251354,-0.497131,0.448364,0.699036,0.922866,-0.376959,-0.106447,-21.15739,-68.13593,21.637169
1783984338.5934,16:12:18.593,25,false,0.251173,-0.497192,0.448303,0.699097,0.924331,-0.373053,-0.095705,-21.195004,-68.18615,21.552036
1783984338.6245,16:12:18.624,26,false,0.251076,-0.497375,0.448059,0.699158,0.926772,-0.383795,-0.102052,-21.213903,-68.036949,21.385693
1783984338.6556,16:12:18.655,27,false,0.250991,-0.497498,0.447876,0.699219,0.936049,-0.386236,-0.106447,-21.156143,-68.082113,21.415431
1783984338.6868,16:12:18.686,28,false,0.250712,-0.497498,0.447937,0.69928,0.917983,-0.375494,-0.108888,-21.208836,-68.122761,21.337518
1783984338.7179,16:12:18.717,29,false,0.2507,-0.497559,0.447876,0.69928,0.918959,-0.392584,-0.099123,-21.076813,-68.054668,21.446842
1783984338.7491,16:12:18.749,30,false,0.250712,-0.497498,0.447937,0.69928,0.920424,-0.378912,-0.103517,-21.062669,-68.023291,21.470465
1783984338.7804,16:12:18.780,31,false,0.251088,-0.497314,0.44812,0.699158,0.93019,-0.383795,-0.112306,-21.034987,-68.02496,21.62631
1783984338.8117,16:12:18.811,0,false,0.251027,-0.497314,0.448059,0.699219,0.931167,-0.38233,-0.113283,-21.010072,-68.161046,21.661894
1783984338.8431,16:12:18.843,1,false,0.250966,-0.497314,0.447998,0.69928,0.923842,-0.383307,-0.104005,-20.897925,-68.193801,21.708873
1783984338.8744,16:12:18.874,2,false,0.250577,-0.497559,0.447754,0.699402,0.920912,-0.377935,-0.098634,-20.961486,-68.208326,21.661431
1783984338.9058,16:12:18.905,3,false,0.250516,-0.497559,0.447693,0.699463,0.923354,-0.382818,-0.112306,-21.018691,-68.221399,21.648641
1783984338.9371,16:12:18.937,4,false,0.250126,-0.497803,0.447449,0.699585,0.917983,-0.386725,-0.103517,-21.070175,-68.203257,21.532453
1783984338.9684,16:12:18.968,5,false,0.249881,-0.497864,0.447327,0.699707,0.934585,-0.374517,-0.116701,-21.011834,-68.291606,21.427884
1783984338.9996,16:12:18.999,6,false,0.249782,-0.498047,0.447083,0.699768,0.922866,-0.391608,-0.103517,-20.914465,-68.221582,21.333772
1783984339.0307,16:12:19.030,7,false,0.249721,-0.498047,0.447021,0.699829,0.922377,-0.379889,-0.111818,-20.886649,-68.323052,21.234117
1783984339.0619,16:12:19.061,8,false,0.249599,-0.498108,0.447021,0.699829,0.930678,-0.384771,-0.100587,-20.861614,-68.264837,21.279013
1783984339.093,16:12:19.093,9,false,0.249624,-0.497986,0.447144,0.699829,0.934585,-0.386725,-0.104982,-20.839083,-68.257305,21.080157
1783984339.1241,16:12:19.124,10,false,0.249402,-0.49823,0.446899,0.69989,0.917983,-0.381842,-0.10547,-20.803851,-68.190711,21.170356
1783984339.1553,16:12:19.155,11,false,0.249624,-0.497986,0.447144,0.699829,0.929213,-0.371588,-0.110842,-20.772142,-68.235453,21.38612
1783984339.1866,16:12:19.186,12,false,0.249819,-0.497864,0.447266,0.699768,0.92726,-0.392584,-0.111818,-20.833327,-68.23086,21.385907
1783984339.218,16:12:19.218,13,false,0.250149,-0.49762,0.447449,0.699707,0.925307,-0.3794,-0.107424,-20.843532,-68.256633,21.565162
1783984339.2493,16:12:19.249,14,false,0.249978,-0.49762,0.447449,0.699768,0.934585,-0.375982,-0.110353,-20.972347,-68.354598,21.576953
1783984339.2804,16:12:19.280,15,false,0.250282,-0.497498,0.44751,0.699707,0.926772,-0.387213,-0.103029,-20.998558,-68.427813,21.64738
1783984339.3116,16:12:19.311,16,false,0.250465,-0.497437,0.447571,0.699646,0.919936,-0.375494,-0.105959,-20.902517,-68.314261,21.561226
1783984339.3427,16:12:19.342,17,false,0.250173,-0.497498,0.447571,0.699707,0.919448,-0.381353,-0.103517,-20.980572,-68.331694,21.438826
1783984339.3741,16:12:19.374,18,false,0.250099,-0.497559,0.447449,0.699768,0.924331,-0.383307,-0.11426,-20.976053,-68.392245,21.433342
1783984339.4052,16:12:19.405,19,false,0.249721,-0.497742,0.447266,0.69989,0.932143,-0.383795,-0.116701,-20.957032,-68.357019,21.368592
1783984339.4363,16:12:19.436,20,false,0.249842,-0.497681,0.447266,0.69989,0.934096,-0.375006,-0.115236,-21.014682,-68.325315,21.459855
1783984339.4675,16:12:19.467,21,false,0.249647,-0.497803,0.447144,0.699951,0.941909,-0.389166,-0.113771,-21.006751,-68.341643,21.527038
1783984339.4986,16:12:19.498,22,false,0.249706,-0.497742,0.447083,0.700012,0.931655,-0.378424,-0.1084,-20.98466,-68.311476,21.452918
1783984339.5298,16:12:19.529,23,false,0.249694,-0.497803,0.447021,0.700012,0.929213,-0.374517,-0.105959,-20.979732,-68.37405,21.446026
1783984339.5611,16:12:19.561,24,false,0.249952,-0.497681,0.447205,0.69989,0.925307,-0.391119,-0.097658,-21.020158,-68.579904,21.46973
1783984339.5924,16:12:19.592,25,false,0.249768,-0.497742,0.447144,0.699951,0.924819,-0.368658,-0.11133,-20.981772,-68.540865,21.386387
1783984339.6238,16:12:19.623,26,false,0.249389,-0.497925,0.44696,0.700073,0.920912,-0.384283,-0.104494,-20.857502,-68.341238,21.445963
1783984339.6551,16:12:19.655,27,false,0.24951,-0.497864,0.44696,0.700073,0.917006,-0.375982,-0.107424,-20.940059,-68.206435,21.514536
1783984339.6865,16:12:19.686,28,false,0.249436,-0.497925,0.446838,0.700134,0.913588,-0.381842,-0.107424,-21.089129,-67.980436,21.576251
1783984339.7176,16:12:19.717,29,false,0.249424,-0.497986,0.446777,0.700134,0.931167,-0.372076,-0.098634,-21.193385,-67.956482,21.527117
1783984339.7488,16:12:19.748,30,false,0.24924,-0.498047,0.446716,0.700195,0.935561,-0.3794,-0.106935,-21.361984,-67.934924,21.587574
1783984339.7799,16:12:19.779,31,false,0.248981,-0.498169,0.446533,0.700317,0.932631,-0.390631,-0.1084,-21.364185,-67.810845,21.537308
1783984339.811,16:12:19.811,0,false,0.248586,-0.498413,0.446289,0.700439,0.911635,-0.375982,-0.109865,-21.321304,-67.773943,21.312623
1783984339.8422,16:12:19.842,1,false,0.248423,-0.498596,0.445984,0.700562,0.916518,-0.372076,-0.111818,-21.387389,-67.800547,21.334714
1783984339.8733,16:12:19.873,2,false,0.248867,-0.498413,0.446228,0.700378,0.929702,-0.370611,-0.096193,-21.416957,-67.839444,21.519088
1783984339.9045,16:12:19.904,3,false,0.248893,-0.498291,0.44635,0.700378,0.926772,-0.381353,-0.109377,-21.264122,-67.874451,21.430809
1783984339.9358,16:12:19.935,4,false,0.248805,-0.498413,0.446167,0.700439,0.922866,-0.383795,-0.106935,-21.216294,-67.846142,21.441081
1783984339.9671,16:12:19.967,5,false,0.248683,-0.498474,0.446167,0.700439,0.925307,-0.386725,-0.103517,-21.382602,-67.835618,21.285834
1783984339.9985,16:12:19.998,6,false,0.24867,-0.498535,0.446106,0.700439,0.932631,-0.384771,-0.094728,-21.412649,-67.871008,21.29565
1783984340.0298,16:12:20.029,7,false,0.248779,-0.498535,0.446045,0.700439,0.925795,-0.375006,-0.115724,-21.364922,-68.007536,21.229715
1783984340.0612,16:12:20.061,8,false,0.248792,-0.498474,0.446106,0.700439,0.925307,-0.382818,-0.104005,-21.351875,-68.01078,21.304958
1783984340.0925,16:12:20.092,9,false,0.248423,-0.498596,0.445984,0.700562,0.916518,-0.379889,-0.107424,-21.235456,-67.983792,21.238093
1783984340.1236,16:12:20.123,10,false,0.248224,-0.498718,0.445862,0.700623,0.919936,-0.377447,-0.120607,-21.160587,-67.86978,21.372313
1783984340.1548,16:12:20.154,11,false,0.248185,-0.498901,0.445679,0.700623,0.923354,-0.375494,-0.105959,-21.167974,-67.946615,21.253851
1783984340.1859,16:12:20.185,12,false,0.248096,-0.499023,0.445496,0.700684,0.922377,-0.378912,-0.108888,-21.32416,-68.060629,21.251911
1783984340.2171,16:12:20.217,13,false,0.248109,-0.498962,0.445557,0.700684,0.921889,-0.376959,-0.106447,-21.345097,-68.088471,21.280073
1783984340.2482,16:12:20.248,14,false,0.248,-0.498962,0.445618,0.700684,0.926772,-0.38526,-0.1084,-21.334033,-68.083622,21.380188
1783984340.2795,16:12:20.279,15,false,0.248,-0.498962,0.445618,0.700684,0.929213,-0.380377,-0.103029,-21.279214,-68.183935,21.395523
1783984340.3109,16:12:20.310,16,false,0.248198,-0.49884,0.44574,0.700623,0.923842,-0.376959,-0.1084,-21.229876,-68.09477,21.454185
1783984340.3422,16:12:20.342,17,false,0.248321,-0.498779,0.44574,0.700623,0.936049,-0.36817,-0.110842,-21.230334,-68.223875,21.46212
1783984340.3736,16:12:20.373,18,false,0.248321,-0.498779,0.44574,0.700623,0.928237,-0.378424,-0.107424,-21.096162,-68.175578,21.424399
1783984340.4049,16:12:20.404,19,false,0.248444,-0.498718,0.44574,0.700623,0.926284,-0.378424,-0.107424,-21.050176,-68.251741,21.525036
1783984340.436,16:12:20.436,20,false,0.248506,-0.498718,0.445801,0.700562,0.93019,-0.378424,-0.096681,-21.143373,-68.230565,21.495978
1783984340.4672,16:12:20.467,21,false,0.248629,-0.498657,0.445801,0.700562,0.922866,-0.376471,-0.108888,-21.197343,-68.22646,21.484779
1783984340.4983,16:12:20.498,22,false,0.24873,-0.498474,0.446045,0.7005,0.918959,-0.393072,-0.101076,-21.216008,-68.147997,21.444793
1783984340.5295,16:12:20.529,23,false,0.248654,-0.498535,0.445923,0.700562,0.917983,-0.379889,-0.107424,-21.143083,-68.241872,21.319082
1783984340.5606,16:12:20.560,24,false,0.248751,-0.498596,0.445801,0.700562,0.928237,-0.366705,-0.112795,-21.15222,-68.326359,21.385389
1783984340.5917,16:12:20.591,25,false,0.248503,-0.498657,0.445679,0.700684,0.926284,-0.3794,-0.106447,-21.175398,-68.312675,21.31048
1783984340.6229,16:12:20.622,26,false,0.248305,-0.498779,0.445557,0.700745,0.927749,-0.377447,-0.104982,-21.046719,-68.255498,21.287924
1783984340.654,16:12:20.654,27,false,0.247908,-0.499023,0.445313,0.700867,0.926284,-0.381842,-0.097658,-20.915954,-68.293761,21.1779
1783984340.6854,16:12:20.685,28,false,0.247832,-0.499084,0.44519,0.700928,0.923842,-0.375494,-0.102052,-20.992666,-68.313244,21.303186
1783984340.7167,16:12:20.716,29,false,0.248031,-0.498962,0.445313,0.700867,0.929702,-0.38233,-0.113771,-21.061706,-68.226102,21.490713
1783984340.748,16:12:20.748,30,false,0.247921,-0.498962,0.445374,0.700867,0.930678,-0.374029,-0.099611,-21.078981,-68.132721,21.494995
1783984340.7794,16:12:20.779,31,false,0.248107,-0.498901,0.445435,0.700806,0.923354,-0.364752,-0.098634,-21.064621,-68.093539,21.513802
1783984340.8107,16:12:20.810,0,false,0.248196,-0.498779,0.445618,0.700745,0.929213,-0.374029,-0.104494,-21.021789,-68.177906,21.426052
1783984340.8419,16:12:20.841,1,false,0.247908,-0.499023,0.445313,0.700867,0.922866,-0.381353,-0.099611,-20.938378,-68.104298,21.2424
1783984340.873,16:12:20.873,2,false,0.247785,-0.499084,0.445313,0.700867,0.934585,-0.380865,-0.104982,-20.893217,-68.127774,21.346283
1783984340.9041,16:12:20.904,3,false,0.247758,-0.499207,0.44519,0.700867,0.925795,-0.387213,-0.112795,-20.80771,-67.969456,21.439777
1783984340.9353,16:12:20.935,4,false,0.247619,-0.499268,0.445007,0.700989,0.931655,-0.381353,-0.114748,-20.820477,-67.9466,21.434198
1783984340.9664,16:12:20.966,5,false,0.247123,-0.499451,0.444885,0.701111,0.929702,-0.376959,-0.11133,-20.817013,-67.985846,21.414224
1783984340.9976,16:12:20.997,6,false,0.247233,-0.499451,0.444824,0.701111,0.925307,-0.370123,-0.104494,-20.873711,-67.856675,21.48597
1783984341.0287,16:12:21.028,7,false,0.247433,-0.499329,0.444946,0.70105,0.92726,-0.373541,-0.107912,-20.999508,-67.889959,21.580449
1783984341.0599,16:12:21.059,8,false,0.247433,-0.499329,0.444946,0.70105,0.924331,-0.376959,-0.101076,-21.12768,-67.964776,21.441173
1783984341.0912,16:12:21.091,9,false,0.247419,-0.49939,0.444885,0.70105,0.926772,-0.390143,-0.10547,-21.153311,-67.942389,21.405547
1783984341.1225,16:12:21.122,10,false,0.247529,-0.49939,0.444824,0.70105,0.921889,-0.382818,-0.1084,-21.131518,-67.92224,21.4333
1783984341.1539,16:12:21.153,11,false,0.247156,-0.499512,0.444702,0.701172,0.936049,-0.38233,-0.097169,-21.022181,-67.963922,21.368554
1783984341.1852,16:12:21.185,12,false,0.247343,-0.499451,0.444763,0.701111,0.91603,-0.363287,-0.103029,-21.08827,-68.016389,21.400005
1783984341.2166,16:12:21.216,13,false,0.247219,-0.499512,0.444763,0.701111,0.929213,-0.373053,-0.109865,-21.192611,-67.958932,21.368496
1783984341.2479,16:12:21.247,14,false,0.247219,-0.499512,0.444763,0.701111,0.932631,-0.379889,-0.097658,-21.166888,-67.937129,21.444815
1783984341.279,16:12:21.279,15,false,0.247482,-0.49939,0.444946,0.700989,0.929213,-0.377935,-0.107912,-21.128783,-67.947414,21.498548
1783984341.3102,16:12:21.310,16,false,0.247758,-0.499207,0.44519,0.700867,0.939467,-0.375494,-0.113283,-21.109443,-68.151071,21.517001
1783984341.3413,16:12:21.341,17,false,0.247944,-0.499146,0.445251,0.700806,0.916518,-0.373053,-0.109865,-21.121944,-68.199777,21.443885
1783984341.3725,16:12:21.372,18,false,0.247881,-0.499146,0.44519,0.700867,0.923354,-0.378912,-0.109377,-21.088334,-68.213705,21.452849
1783984341.4036,16:12:21.403,19,false,0.247881,-0.499146,0.44519,0.700867,0.926284,-0.38819,-0.104982,-20.908546,-68.121563,21.535687
1783984341.4347,16:12:21.434,20,false,0.247821,-0.499207,0.445251,0.700806,0.922866,-0.3794,-0.113283,-20.971044,-68.247989,21.460702
1783984341.4661,16:12:21.466,21,false,0.24802,-0.499084,0.445374,0.700745,0.924331,-0.377447,-0.104005,-21.012339,-68.19728,21.482939
1783984341.4974,16:12:21.497,22,false,0.247821,-0.499207,0.445251,0.700806,0.927749,-0.381842,-0.092287,-21.228951,-68.151642,21.323506
1783984341.5288,16:12:21.528,23,false,0.247897,-0.499146,0.445374,0.700745,0.926772,-0.380377,-0.11133,-21.094917,-68.185338,21.299647
1783984341.5601,16:12:21.560,24,false,0.248083,-0.499084,0.445435,0.700684,0.925795,-0.364263,-0.104982,-21.078963,-68.215663,21.278174
1783984341.5914,16:12:21.591,25,false,0.248133,-0.499146,0.445435,0.700623,0.924819,-0.390631,-0.103029,-21.04965,-68.228002,21.348571
1783984341.6228,16:12:21.622,26,false,0.248146,-0.499084,0.445496,0.700623,0.918959,-0.381353,-0.106935,-21.068131,-68.239108,21.26239
1783984341.6539,16:12:21.653,27,false,0.248146,-0.499084,0.445496,0.700623,0.929702,-0.378912,-0.110842,-21.054856,-68.264056,21.304458
1783984341.6851,16:12:21.685,28,false,0.247884,-0.499207,0.445313,0.700745,0.927749,-0.380377,-0.10547,-21.042908,-68.256602,21.207735
1783984341.7162,16:12:21.716,29,false,0.247685,-0.499329,0.44519,0.700806,0.938003,-0.384771,-0.110353,-20.927478,-68.130263,21.255268
1783984341.7473,16:12:21.747,30,false,0.247609,-0.49939,0.445068,0.700867,0.928237,-0.378424,-0.104494,-20.823591,-68.166096,21.268141
1783984341.7785,16:12:21.778,31,false,0.247685,-0.499329,0.44519,0.700806,0.919448,-0.372564,-0.103029,-20.969354,-68.332931,21.29468
1783984341.8098,16:12:21.809,0,false,0.247884,-0.499207,0.445313,0.700745,0.936538,-0.3794,-0.098146,-20.891187,-68.273728,21.303611
1783984341.8412,16:12:21.841,1,false,0.247981,-0.499268,0.44519,0.700745,0.932143,-0.376959,-0.103517,-20.865699,-68.190537,21.162111
1783984341.8725,16:12:21.872,2,false,0.247871,-0.499268,0.445251,0.700745,0.918471,-0.371588,-0.104005,-20.932482,-68.175482,21.094576
1783984341.9038,16:12:21.903,3,false,0.247781,-0.49939,0.445068,0.700806,0.93019,-0.373541,-0.103517,-20.962679,-68.11707,21.108564
1783984341.9352,16:12:21.935,4,false,0.247781,-0.49939,0.445068,0.700806,0.927749,-0.378912,-0.104005,-20.88518,-68.124314,21.210876
1783984341.9663,16:12:21.966,5,false,0.247795,-0.499329,0.445129,0.700806,0.919936,-0.374517,-0.103517,-20.950015,-68.115881,21.317911
1783984341.9977,16:12:21.997,6,false,0.247871,-0.499268,0.445251,0.700745,0.920912,-0.377935,-0.099611,-20.978459,-68.033521,21.264704
1783984342.0288,16:12:22.028,7,false,0.247884,-0.499207,0.445313,0.700745,0.930678,-0.369146,-0.102541,-21.04892,-68.12389,21.276633
1783984342.0599,16:12:22.059,8,false,0.247286,-0.499573,0.444946,0.700928,0.918959,-0.371588,-0.110353,-21.007658,-68.130453,21.287369
1783984342.0911,16:12:22.091,9,false,0.247332,-0.499573,0.444824,0.700989,0.931167,-0.369146,-0.10547,-21.030338,-68.076544,21.177401
1783984342.1222,16:12:22.122,10,false,0.247359,-0.499451,0.444946,0.700989,0.924331,-0.371588,-0.113771,-21.080657,-68.028026,21.287783
1783984342.1534,16:12:22.153,11,false,0.247436,-0.49939,0.445068,0.700928,0.930678,-0.384283,-0.109865,-21.066129,-68.223621,21.297404
1783984342.1845,16:12:22.184,12,false,0.247449,-0.499329,0.445129,0.700928,0.929702,-0.381353,-0.108888,-20.963331,-68.160395,21.425694
1783984342.2158,16:12:22.215,13,false,0.247559,-0.499329,0.445068,0.700928,0.927749,-0.383795,-0.113771,-20.960536,-68.118446,21.451431
1783984342.2472,16:12:22.247,14,false,0.247309,-0.49939,0.444946,0.70105,0.93312,-0.380377,-0.113283,-21.077651,-68.125553,21.41478
1783984342.2785,16:12:22.278,15,false,0.247233,-0.499451,0.444824,0.701111,0.926284,-0.374517,-0.104005,-21.018562,-68.042226,21.396747
1783984342.3099,16:12:22.309,16,false,0.247219,-0.499512,0.444763,0.701111,0.932631,-0.380865,-0.093751,-21.085013,-68.056955,21.395472
1783984342.3412,16:12:22.341,17,false,0.247219,-0.499512,0.444763,0.701111,0.931655,-0.3794,-0.101076,-21.040142,-68.02535,21.424232
1783984342.3726,16:12:22.372,18,false,0.246909,-0.499634,0.444702,0.701172,0.922377,-0.371099,-0.108888,-21.059573,-67.981951,21.480023
1783984342.4037,16:12:22.403,19,false,0.247096,-0.499573,0.444763,0.701111,0.922866,-0.388678,-0.111818,-21.181738,-68.017662,21.410605
1783984342.4348,16:12:22.434,20,false,0.246722,-0.499695,0.444641,0.701233,0.93019,-0.384283,-0.104494,-21.142148,-68.019894,21.39299
1783984342.466,16:12:22.466,21,false,0.246818,-0.499756,0.444519,0.701233,0.93019,-0.3794,-0.120607,-21.166333,-67.962087,21.317321
1783984342.4971,16:12:22.497,22,false,0.246353,-0.5,0.444214,0.701416,0.929213,-0.3794,-0.108888,-21.218006,-67.98483,21.398757
1783984342.5283,16:12:22.528,23,false,0.246586,-0.499939,0.444153,0.701416,0.93312,-0.378424,-0.112306,-21.234605,-67.85576,21.322512
1783984342.5596,16:12:22.559,24,false,0.246261,-0.500122,0.444031,0.701477,0.922377,-0.374029,-0.105959,-21.249544,-67.739597,21.403429
1783984342.5909,16:12:22.590,25,false,0.246554,-0.499878,0.444336,0.701355,0.928725,-0.375494,-0.100099,-21.068589,-67.814497,21.506162
1783984342.6223,16:12:22.622,26,false,0.246741,-0.499817,0.444397,0.701294,0.921401,-0.383307,-0.103517,-21.174899,-68.031445,21.464038
1783984342.6536,16:12:22.653,27,false,0.246741,-0.499817,0.444397,0.701294,0.927749,-0.381842,-0.108888,-21.285531,-68.092114,21.396218
1783984342.685,16:12:22.685,28,false,0.246678,-0.499817,0.444336,0.701355,0.931655,-0.387701,-0.110353,-21.355193,-68.146716,21.33518
1783984342.7163,16:12:22.716,29,false,0.246865,-0.499756,0.444397,0.701294,0.922377,-0.380865,-0.111818,-21.298257,-68.270627,21.325108
1783984342.7476,16:12:22.747,30,false,0.246801,-0.499756,0.444336,0.701355,0.932143,-0.38526,-0.106935,-21.247016,-68.2027,21.34595
1783984342.7788,16:12:22.778,31,false,0.247002,-0.499634,0.444458,0.701294,0.934096,-0.373541,-0.110842,-21.290621,-68.23129,21.424524
1783984342.8099,16:12:22.809,0,false,0.247016,-0.499573,0.444519,0.701294,0.931655,-0.375982,-0.107424,-21.255097,-68.25702,21.450378
1783984342.8411,16:12:22.841,1,false,0.247139,-0.499512,0.444519,0.701294,0.924819,-0.378912,-0.101076,-21.342756,-68.175501,21.368971
1783984342.8722,16:12:22.872,2,false,0.246514,-0.499695,0.444275,0.701538,0.929213,-0.389654,-0.104005,-21.302018,-68.176902,21.445242
1783984342.9033,16:12:22.903,3,false,0.246591,-0.499634,0.444397,0.701477,0.926772,-0.374029,-0.099123,-21.220492,-68.118348,21.454071
1783984342.9345,16:12:22.934,4,false,0.246889,-0.499573,0.444397,0.701416,0.922866,-0.390143,-0.101076,-21.177027,-68.035742,21.566694
1783984342.9658,16:12:22.965,5,false,0.246765,-0.499634,0.444397,0.701416,0.928237,-0.375494,-0.106935,-21.108001,-67.961397,21.458701
1783984342.9972,16:12:22.997,6,false,0.246889,-0.499573,0.444397,0.701416,0.919448,-0.373541,-0.104005,-21.120646,-68.103839,21.466184
1783984343.0285,16:12:23.028,7,false,0.246638,-0.499634,0.444275,0.701538,0.911147,-0.377935,-0.123049,-21.072212,-68.187176,21.383196
1783984343.0598,16:12:23.059,8,false,0.246748,-0.499634,0.444214,0.701538,0.928237,-0.383795,-0.10547,-21.133297,-68.217318,21.353368
1783984343.0912,16:12:23.091,9,false,0.246359,-0.499817,0.444031,0.70166,0.920912,-0.364263,-0.107912,-21.038736,-68.289307,21.386338
1783984343.1225,16:12:23.122,10,false,0.246373,-0.499756,0.444092,0.70166,0.934585,-0.373541,-0.112795,-21.10317,-68.159697,21.460873
1783984343.1537,16:12:23.153,11,false,0.24656,-0.499695,0.444153,0.701599,0.922866,-0.376959,-0.099123,-21.146206,-68.147726,21.363462
1783984343.1848,16:12:23.184,12,false,0.24619,-0.5,0.443726,0.701782,0.922866,-0.382818,-0.106935,-21.304569,-68.092089,21.201023
1783984343.2159,16:12:23.215,13,false,0.24619,-0.5,0.443726,0.701782,0.929213,-0.367193,-0.097658,-21.327465,-68.116786,21.234274
1783984343.2471,16:12:23.247,14,false,0.246391,-0.499878,0.443848,0.701721,0.929213,-0.383307,-0.097169,-21.318164,-68.318459,21.264199
1783984343.2782,16:12:23.278,15,false,0.24662,-0.499634,0.444092,0.70166,0.9131,-0.380377,-0.113771,-21.41447,-68.320519,21.365902
1783984343.3094,16:12:23.309,16,false,0.246684,-0.499634,0.444153,0.701599,0.918471,-0.376959,-0.096681,-21.411423,-68.337326,21.472388
1783984343.3407,16:12:23.340,17,false,0.247008,-0.499451,0.444275,0.701538,0.924331,-0.383307,-0.109377,-21.438587,-68.397314,21.358871
1783984343.372,16:12:23.372,18,false,0.247008,-0.499451,0.444275,0.701538,0.925307,-0.391119,-0.102541,-21.223774,-68.541027,21.301568
1783984343.4034,16:12:23.403,19,false,0.247039,-0.49939,0.444519,0.701416,0.915053,-0.383307,-0.106447,-21.075304,-68.490922,21.220088
1783984343.4347,16:12:23.434,20,false,0.247163,-0.499329,0.444519,0.701416,0.920424,-0.378912,-0.11133,-20.956634,-68.311243,21.311248
1783984343.4661,16:12:23.466,21,false,0.247549,-0.499146,0.444702,0.701294,0.928725,-0.382818,-0.100587,-21.074139,-68.448609,21.393291
1783984343.4972,16:12:23.497,22,false,0.247702,-0.499023,0.444946,0.701172,0.929213,-0.370123,-0.110842,-21.120079,-68.362884,21.407315
1783984343.5283,16:12:23.528,23,false,0.248087,-0.49884,0.445129,0.70105,0.92726,-0.381353,-0.100099,-21.086655,-68.285732,21.569475
1783984343.5595,16:12:23.559,24,false,0.248362,-0.498657,0.445374,0.700928,0.928237,-0.383795,-0.099611,-21.176204,-68.365834,21.64065
1783984343.5906,16:12:23.590,25,false,0.24867,-0.498535,0.445435,0.700867,0.930678,-0.371588,-0.105959,-21.062398,-68.258479,21.704708
1783984343.6218,16:12:23.621,26,false,0.249019,-0.498291,0.445801,0.700684,0.938491,-0.380377,-0.116213,-21.034742,-68.296444,21.867036
1783984343.6529,16:12:23.652,27,false,0.249153,-0.498169,0.445862,0.700684,0.919936,-0.371099,-0.113283,-21.129483,-68.225936,21.938363
1783984343.6841,16:12:23.684,28,false,0.249044,-0.498169,0.445923,0.700684,0.925307,-0.387701,-0.106935,-21.13998,-68.237248,21.942741
1783984343.7154,16:12:23.715,29,false,0.249351,-0.498047,0.445984,0.700623,0.912123,-0.377447,-0.103029,-21.104566,-68.247429,22.006497
1783984343.7467,16:12:23.746,30,false,0.249413,-0.498047,0.446045,0.700562,0.923354,-0.373053,-0.118166,-21.162416,-68.241638,21.974154
1783984343.7781,16:12:23.778,31,false,0.249182,-0.498108,0.446106,0.700562,0.93019,-0.391119,-0.104982,-21.184574,-68.266333,21.840369
1783984343.8094,16:12:23.809,0,false,0.249379,-0.497986,0.446228,0.7005,0.920424,-0.375982,-0.112306,-21.264331,-68.243698,21.884454
1783984343.8408,16:12:23.840,1,false,0.249637,-0.497864,0.446411,0.700378,0.932143,-0.380377,-0.101564,-21.231436,-68.23828,21.939085
1783984343.8721,16:12:23.872,2,false,0.249466,-0.497864,0.446411,0.700439,0.918471,-0.380865,-0.103029,-21.127061,-68.233404,21.883576
1783984343.9032,16:12:23.903,3,false,0.249712,-0.497803,0.446533,0.700317,0.933608,-0.369635,-0.10547,-21.01817,-68.139292,21.818664
1783984343.9344,16:12:23.934,4,false,0.249565,-0.497986,0.446411,0.700317,0.93312,-0.374029,-0.110353,-21.069706,-68.054591,21.835012
1783984343.9655,16:12:23.965,5,false,0.249662,-0.498047,0.446289,0.700317,0.914076,-0.384283,-0.104982,-21.116089,-68.187715,21.804864
1783984343.9967,16:12:23.996,6,false,0.249443,-0.498047,0.446411,0.700317,0.929213,-0.371588,-0.099123,-21.06811,-68.113126,21.792685
1783984344.0278,16:12:24.027,7,false,0.249702,-0.497925,0.446594,0.700195,0.923842,-0.374029,-0.103517,-21.039883,-68.105811,21.766769
1783984344.0591,16:12:24.059,8,false,0.249994,-0.497864,0.446594,0.700134,0.928237,-0.378424,-0.101076,-21.074294,-68.06932,21.937846
1783984344.0905,16:12:24.090,9,false,0.250289,-0.497559,0.44696,0.700012,0.924819,-0.381353,-0.106447,-20.985633,-68.036478,21.95723
1783984344.1218,16:12:24.121,10,false,0.250423,-0.497437,0.447021,0.700012,0.923842,-0.362799,-0.110842,-20.905838,-68.08169,21.974675
1783984344.1532,16:12:24.153,11,false,0.250484,-0.497437,0.447083,0.699951,0.916518,-0.383307,-0.103517,-20.804115,-67.913026,22.065145
1783984344.1845,16:12:24.184,12,false,0.250302,-0.497498,0.447021,0.700012,0.923842,-0.380377,-0.104494,-20.951826,-67.850952,22.056846
1783984344.2158,16:12:24.215,13,false,0.250217,-0.497681,0.44696,0.699951,0.923354,-0.373053,-0.113283,-20.935228,-67.869855,22.004514
1783984344.2472,16:12:24.247,14,false,0.250339,-0.49762,0.44696,0.699951,0.922377,-0.38233,-0.105959,-20.995058,-67.842006,22.002277
1783984344.2785,16:12:24.278,15,false,0.250034,-0.497742,0.446899,0.700012,0.927749,-0.3794,-0.109865,-20.914321,-67.801988,22.015218
1783984344.3097,16:12:24.309,16,false,0.249741,-0.497803,0.446899,0.700073,0.923842,-0.368658,-0.104005,-21.065965,-67.840741,21.952096
1783984344.3408,16:12:24.340,17,false,0.249803,-0.497803,0.44696,0.700012,0.926772,-0.373053,-0.105959,-20.963183,-67.785895,21.985009
1783984344.3719,16:12:24.371,18,false,0.249816,-0.497742,0.447021,0.700012,0.920424,-0.367193,-0.109865,-20.960403,-67.930934,21.999676
1783984344.4031,16:12:24.403,19,false,0.250377,-0.497498,0.447266,0.699829,0.917494,-0.369146,-0.097658,-20.9579,-67.911931,21.968016
1783984344.4342,16:12:24.434,20,false,0.25017,-0.497681,0.447083,0.69989,0.933608,-0.386725,-0.092775,-20.92574,-67.93969,22.01429
1783984344.4656,16:12:24.465,21,false,0.250061,-0.497681,0.447144,0.69989,0.932143,-0.385748,-0.101076,-20.986519,-67.949719,22.040984
1783984344.4969,16:12:24.496,22,false,0.250244,-0.49762,0.447205,0.699829,0.924331,-0.380377,-0.109377,-20.936544,-68.01856,21.990238
1783984344.5282,16:12:24.528,23,false,0.250646,-0.497314,0.44751,0.699707,0.920912,-0.372076,-0.101564,-20.816796,-68.080517,22.049245
1783984344.5596,16:12:24.559,24,false,0.250537,-0.497314,0.447571,0.699707,0.921889,-0.38233,-0.11426,-20.933332,-68.001694,21.967766
1783984344.5909,16:12:24.590,25,false,0.250525,-0.497375,0.44751,0.699707,0.924331,-0.376471,-0.107424,-21.068121,-68.005523,21.924342
1783984344.6221,16:12:24.622,26,false,0.250658,-0.497253,0.447571,0.699707,0.923842,-0.377447,-0.095705,-21.024939,-67.949153,21.945077
1783984344.6532,16:12:24.653,27,false,0.250549,-0.497253,0.447632,0.699707,0.928237,-0.382818,-0.104982,-20.92626,-67.883466,21.874014
1783984344.6843,16:12:24.684,28,false,0.250732,-0.497192,0.447693,0.699646,0.925795,-0.392096,-0.104005,-20.852402,-67.943979,21.825012
1783984344.7155,16:12:24.715,29,false,0.250732,-0.497192,0.447693,0.699646,0.926772,-0.372564,-0.109377,-20.935469,-67.923671,21.78091
1783984344.7466,16:12:24.746,30,false,0.250525,-0.497375,0.44751,0.699707,0.923354,-0.388678,-0.094728,-21.040137,-67.860533,21.756173
1783984344.7778,16:12:24.777,31,false,0.250525,-0.497375,0.44751,0.699707,0.917983,-0.375006,-0.102052,-21.029661,-67.84857,21.718955
1783984344.8089,16:12:24.808,0,false,0.250719,-0.497253,0.447632,0.699646,0.920912,-0.384283,-0.107424,-21.065094,-67.987341,21.760228
1783984344.8402,16:12:24.840,1,false,0.250404,-0.497437,0.44751,0.699707,0.93312,-0.3794,-0.110842,-20.977353,-67.887928,21.722604
1783984344.8716,16:12:24.871,2,false,0.250439,-0.497498,0.447327,0.699768,0.92726,-0.387213,-0.119631,-20.973156,-67.873226,21.539205
1783984344.9029,16:12:24.902,3,false,0.250011,-0.49762,0.447144,0.699951,0.926284,-0.378424,-0.109865,-20.969378,-67.859993,21.553591
1783984344.9343,16:12:24.934,4,false,0.250376,-0.497437,0.447144,0.699951,0.929213,-0.376959,-0.11426,-21.100563,-67.982669,21.701124
1783984344.9656,16:12:24.965,5,false,0.250193,-0.497498,0.447083,0.700012,0.931655,-0.378912,-0.105959,-21.203675,-68.033261,21.639503
1783984344.9967,16:12:24.996,6,false,0.25024,-0.497498,0.44696,0.700073,0.935561,-0.379889,-0.114748,-21.221707,-68.078794,21.64386
1783984345.0279,16:12:25.027,7,false,0.250166,-0.497559,0.446838,0.700134,0.921889,-0.389166,-0.118654,-21.252889,-68.000144,21.498242
1783984345.059,16:12:25.059,8,false,0.25003,-0.49762,0.446655,0.700256,0.921889,-0.378912,-0.107424,-21.355723,-67.959266,21.606448
1783984345.0902,16:12:25.090,9,false,0.249968,-0.49762,0.446594,0.700317,0.929213,-0.389166,-0.105959,-21.343596,-67.922475,21.599157
1783984345.1213,16:12:25.121,10,false,0.250027,-0.497559,0.446533,0.700378,0.914565,-0.374517,-0.117678,-21.362589,-67.934226,21.637456
1783984345.1525,16:12:25.152,11,false,0.25027,-0.497437,0.446533,0.700378,0.925307,-0.367193,-0.120119,-21.514268,-67.914893,21.686879
1783984345.1836,16:12:25.183,12,false,0.250329,-0.497375,0.446472,0.700439,0.919936,-0.3794,-0.119631,-21.426472,-67.897494,21.626682
1783984345.2147,16:12:25.214,13,false,0.250391,-0.497375,0.446533,0.700378,0.938003,-0.381353,-0.11133,-21.302593,-67.851927,21.632321
1783984345.2461,16:12:25.246,14,false,0.250404,-0.497314,0.446594,0.700378,0.932631,-0.390143,-0.109377,-21.235964,-67.810917,21.637396
1783984345.2774,16:12:25.277,15,false,0.250416,-0.497253,0.446655,0.700378,0.905287,-0.371588,-0.109377,-21.161044,-67.759054,21.55224
1783984345.3088,16:12:25.308,16,false,0.25,-0.49762,0.446289,0.7005,0.919936,-0.369635,-0.10547,-21.168385,-67.667516,21.415785
1783984345.3401,16:12:25.340,17,false,0.249863,-0.497681,0.446106,0.700623,0.926772,-0.383307,-0.118166,-21.279669,-67.585131,21.397652
1783984345.3712,16:12:25.371,18,false,0.249997,-0.497559,0.446167,0.700623,0.934585,-0.387701,-0.106935,-21.349917,-67.630616,21.486009
1783984345.4024,16:12:25.402,19,false,0.250072,-0.497498,0.446289,0.700562,0.921401,-0.384771,-0.11133,-21.458001,-67.761275,21.505715
1783984345.4335,16:12:25.433,20,false,0.249888,-0.497559,0.446228,0.700623,0.925307,-0.375006,-0.109377,-21.360877,-67.819053,21.478589
1783984345.4647,16:12:25.464,21,false,0.249729,-0.497803,0.446045,0.700623,0.921889,-0.381842,-0.096681,-21.497773,-67.900961,21.454176
1783984345.4958,16:12:25.495,22,false,0.249875,-0.49762,0.446167,0.700623,0.928725,-0.378424,-0.115236,-21.336857,-68.034494,21.447158
1783984345.5269,16:12:25.526,23,false,0.24937,-0.497803,0.445862,0.700867,0.922377,-0.376959,-0.116701,-21.431294,-68.06495,21.351118
1783984345.5581,16:12:25.558,24,false,0.249383,-0.497742,0.445923,0.700867,0.923842,-0.375982,-0.114748,-21.336841,-68.16713,21.339452
1783984345.5894,16:12:25.589,25,false,0.249517,-0.49762,0.445984,0.700867,0.933608,-0.371588,-0.114748,-21.296694,-68.169368,21.373814
1783984345.6208,16:12:25.620,26,false,0.249626,-0.49762,0.445923,0.700867,0.93019,-0.38526,-0.112795,-21.305424,-68.246152,21.270155
1783984345.6521,16:12:25.652,27,false,0.24943,-0.497742,0.445801,0.700928,0.921401,-0.386236,-0.107912,-21.178697,-68.150766,21.296492
1783984345.6834,16:12:25.683,28,false,0.249107,-0.497864,0.445557,0.701111,0.920424,-0.387213,-0.108888,-21.348765,-67.975195,21.33515
1783984345.7148,16:12:25.714,29,false,0.248936,-0.497864,0.445557,0.701172,0.915541,-0.385748,-0.110842,-21.486872,-67.936812,21.325081
1783984345.7459,16:12:25.745,30,false,0.249058,-0.497803,0.445557,0.701172,0.928237,-0.369635,-0.107424,-21.491538,-68.081713,21.390787
1783984345.7771,16:12:25.777,31,false,0.248797,-0.497925,0.445374,0.701294,0.934096,-0.377935,-0.111818,-21.435922,-67.972863,21.315339
1783984345.8082,16:12:25.808,0,false,0.248784,-0.497986,0.445313,0.701294,0.918471,-0.380865,-0.105959,-21.385868,-68.024436,21.292296
1783984345.8393,16:12:25.839,1,false,0.248662,-0.498047,0.445313,0.701294,0.922866,-0.383795,-0.107424,-21.445496,-68.055898,21.361281
1783984345.8705,16:12:25.870,2,false,0.248784,-0.497986,0.445313,0.701294,0.931655,-0.371099,-0.108888,-21.424392,-67.829998,21.348599
1783984345.9016,16:12:25.901,3,false,0.248696,-0.498108,0.445129,0.701355,0.924819,-0.374029,-0.112795,-21.360536,-67.850996,21.471769
1783984345.9328,16:12:25.932,4,false,0.248709,-0.498047,0.44519,0.701355,0.927749,-0.370611,-0.116701,-21.243251,-67.839987,21.313453
1783984345.9639,16:12:25.963,5,false,0.248818,-0.498047,0.445129,0.701355,0.917494,-0.377935,-0.116701,-21.19751,-67.740355,21.380322
1783984345.9952,16:12:25.995,6,false,0.249041,-0.497803,0.445374,0.701294,0.917006,-0.384771,-0.1084,-21.216158,-67.74041,21.485366
1783984346.0266,16:12:26.026,7,false,0.249041,-0.497803,0.445374,0.701294,0.924819,-0.371099,-0.108888,-21.292757,-67.875044,21.355598
1783984346.0579,16:12:26.057,8,false,0.248877,-0.497986,0.445068,0.701416,0.924331,-0.380377,-0.108888,-21.286927,-67.891537,21.343484
1783984346.0893,16:12:26.089,9,false,0.248705,-0.497986,0.445068,0.701477,0.93019,-0.383307,-0.110353,-21.311588,-68.011058,21.257812
1783984346.1204,16:12:26.120,10,false,0.248827,-0.497925,0.445068,0.701477,0.926284,-0.375982,-0.107424,-21.259013,-68.01395,21.285384
1783984346.1515,16:12:26.151,11,false,0.248827,-0.497925,0.445068,0.701477,0.91603,-0.378424,-0.117189,-21.286465,-67.941784,21.310199
1783984346.1827,16:12:26.182,12,false,0.249134,-0.497803,0.445129,0.701416,0.930678,-0.380377,-0.109377,-21.296217,-68.041326,21.347486
1783984346.2138,16:12:26.213,13,false,0.249223,-0.497681,0.445313,0.701355,0.925307,-0.375006,-0.106935,-21.260134,-68.056145,21.351137
1783984346.245,16:12:26.245,14,false,0.249038,-0.497742,0.445251,0.701416,0.913588,-0.373053,-0.110353,-21.302427,-67.919944,21.279653
1783984346.2761,16:12:26.276,15,false,0.248975,-0.497742,0.44519,0.701477,0.920912,-0.381353,-0.112306,-21.385353,-67.90204,21.290087
1783984346.3073,16:12:26.307,16,false,0.248975,-0.497742,0.44519,0.701477,0.920912,-0.379889,-0.109865,-21.220725,-67.796203,21.389201
1783984346.3386,16:12:26.338,17,false,0.248975,-0.497742,0.44519,0.701477,0.915053,-0.374517,-0.106935,-21.177236,-67.925258,21.373726
1783984346.3699,16:12:26.369,18,false,0.248592,-0.497925,0.445007,0.701599,0.917006,-0.385748,-0.117189,-21.15305,-67.951684,21.270076
1783984346.4013,16:12:26.401,19,false,0.248618,-0.497803,0.445129,0.701599,0.91603,-0.397467,-0.109865,-21.161191,-67.885744,21.341283
1783984346.4326,16:12:26.432,20,false,0.24842,-0.497925,0.445007,0.70166,0.928725,-0.384283,-0.110353,-21.198425,-67.960983,21.285739
1783984346.464,16:12:26.464,21,false,0.248221,-0.498047,0.444885,0.701721,0.924331,-0.3794,-0.11133,-21.216982,-67.80439,21.190887
1783984346.4953,16:12:26.495,22,false,0.248055,-0.49823,0.44458,0.701843,0.924819,-0.377935,-0.115236,-21.368268,-67.633549,21.195244
1783984346.5266,16:12:26.526,23,false,0.247946,-0.49823,0.444641,0.701843,0.926284,-0.38233,-0.110353,-21.429655,-67.524653,21.273934
1783984346.5579,16:12:26.557,24,false,0.247856,-0.498352,0.444458,0.701904,0.925307,-0.377447,-0.115236,-21.410135,-67.576186,21.165309
1783984346.589,16:12:26.589,25,false,0.24758,-0.498535,0.444214,0.702026,0.926284,-0.369146,-0.102052,-21.392567,-67.547796,21.127363
1783984346.6202,16:12:26.620,26,false,0.248055,-0.49823,0.44458,0.701843,0.930678,-0.384283,-0.105959,-21.406664,-67.806368,21.212841
1783984346.6513,16:12:26.651,27,false,0.248055,-0.49823,0.44458,0.701843,0.923354,-0.375982,-0.106447,-21.404397,-67.799821,21.200048
1783984346.6824,16:12:26.682,28,false,0.247869,-0.498291,0.444519,0.701904,0.911635,-0.380377,-0.108888,-21.357495,-67.91356,21.218443
1783984346.7136,16:12:26.713,29,false,0.248191,-0.498108,0.444641,0.701843,0.934585,-0.370123,-0.111818,-21.240514,-67.941156,21.339675
1783984346.7449,16:12:26.744,30,false,0.249021,-0.497742,0.445068,0.701538,0.938491,-0.375494,-0.113283,-21.195047,-67.831407,21.284291
1783984346.7763,16:12:26.776,31,false,0.248849,-0.497742,0.445068,0.701599,0.928237,-0.385748,-0.118166,-21.064403,-67.867218,21.264354
1783984346.8076,16:12:26.807,0,false,0.248453,-0.497986,0.444824,0.701721,0.922377,-0.384771,-0.105959,-21.111316,-67.734956,21.216502
1783984346.8389,16:12:26.838,1,false,0.248638,-0.497925,0.444885,0.70166,0.926772,-0.369635,-0.116701,-21.12363,-67.720597,21.322975
1783984346.8703,16:12:26.870,2,false,0.248862,-0.497681,0.445129,0.701599,0.933608,-0.387701,-0.120607,-20.985174,-67.752535,21.314123
1783984346.9014,16:12:26.901,3,false,0.248799,-0.497681,0.445068,0.70166,0.923842,-0.378424,-0.108888,-21.099825,-67.826141,21.291202
1783984346.9326,16:12:26.932,4,false,0.248774,-0.497803,0.444946,0.70166,0.917006,-0.370123,-0.112795,-20.993657,-67.847525,21.240666
1783984346.9637,16:12:26.963,5,false,0.248909,-0.497681,0.445007,0.70166,0.92726,-0.390143,-0.116701,-20.957922,-67.806955,21.284906
1783984346.9948,16:12:26.994,6,false,0.248909,-0.497681,0.445007,0.70166,0.925307,-0.376471,-0.110842,-20.865944,-67.860165,21.35463
1783984347.026,16:12:27.026,7,false,0.2494,-0.497498,0.445129,0.701538,0.925307,-0.374029,-0.100099,-20.902795,-67.878146,21.44729
1783984347.0571,16:12:27.057,8,false,0.249106,-0.497559,0.445129,0.701599,0.920424,-0.377935,-0.109865,-20.935961,-67.924237,21.381145
1783984347.0883,16:12:27.088,9,false,0.248846,-0.497681,0.444946,0.701721,0.921889,-0.376471,-0.115724,-20.935903,-68.025534,21.381429
1783984347.1196,16:12:27.119,10,false,0.248846,-0.497681,0.444946,0.701721,0.923354,-0.38233,-0.112306,-21.040527,-68.086794,21.366732
1783984347.1509,16:12:27.150,11,false,0.248909,-0.497681,0.445007,0.70166,0.926772,-0.383795,-0.116213,-21.030012,-68.126974,21.293689
1783984347.1823,16:12:27.182,12,false,0.249316,-0.497375,0.445313,0.701538,0.924331,-0.372564,-0.110353,-20.975687,-68.17809,21.317673
1783984347.2136,16:12:27.213,13,false,0.249329,-0.497314,0.445374,0.701538,0.926772,-0.373541,-0.116701,-21.046426,-68.254002,21.294398
1783984347.245,16:12:27.245,14,false,0.249438,-0.497314,0.445313,0.701538,0.922866,-0.36817,-0.107424,-21.005413,-68.202692,21.273449
1783984347.2761,16:12:27.276,15,false,0.249894,-0.49707,0.445618,0.701355,0.910658,-0.378424,-0.107912,-20.878779,-68.246236,21.374227
1783984347.3072,16:12:27.307,16,false,0.250178,-0.496826,0.445923,0.701233,0.92726,-0.38819,-0.105959,-20.764808,-68.22561,21.36025
1783984347.3384,16:12:27.338,17,false,0.250069,-0.496826,0.445984,0.701233,0.931167,-0.375982,-0.109865,-20.856634,-68.177139,21.437393
1783984347.3695,16:12:27.369,18,false,0.250069,-0.496826,0.445984,0.701233,0.935073,-0.38819,-0.113771,-20.90937,-68.208285,21.357284
1783984347.4007,16:12:27.400,19,false,0.250277,-0.496643,0.446167,0.701172,0.920424,-0.372564,-0.111818,-20.941879,-68.146593,21.449678
1783984347.4318,16:12:27.431,20,false,0.250265,-0.496704,0.446106,0.701172,0.917983,-0.377935,-0.114748,-21.015998,-68.031254,21.44311
1783984347.4629,16:12:27.462,21,false,0.250203,-0.496704,0.446045,0.701233,0.918471,-0.375494,-0.112306,-21.082705,-68.12185,21.40729
1783984347.4943,16:12:27.494,22,false,0.250078,-0.496704,0.445923,0.701355,0.916518,-0.389654,-0.117189,-21.127788,-68.173478,21.419914
1783984347.5256,16:12:27.525,23,false,0.249969,-0.496704,0.445984,0.701355,0.922866,-0.369146,-0.110842,-21.153408,-68.20499,21.386415
1783984347.557,16:12:27.557,24,false,0.249944,-0.496826,0.445862,0.701355,0.937514,-0.376959,-0.104005,-21.161513,-68.03895,21.371219
1783984347.5883,16:12:27.588,25,false,0.249539,-0.497131,0.445557,0.701477,0.932143,-0.379889,-0.106447,-21.318346,-67.964284,21.282773
1783984347.6197,16:12:27.619,26,false,0.249723,-0.49707,0.445618,0.701416,0.924819,-0.380377,-0.102052,-21.339864,-68.106438,21.307849
1783984347.6508,16:12:27.650,27,false,0.250103,-0.496887,0.445801,0.701294,0.933608,-0.384283,-0.10547,-21.284462,-68.159607,21.375279
1783984347.6821,16:12:27.682,28,false,0.249919,-0.496948,0.44574,0.701355,0.924819,-0.3794,-0.098634,-21.309369,-68.177552,21.316335
1783984347.7133,16:12:27.713,29,false,0.250165,-0.496887,0.445862,0.701233,0.934585,-0.375982,-0.109865,-21.316831,-68.283425,21.353008
1783984347.7444,16:12:27.744,30,false,0.250103,-0.496887,0.445801,0.701294,0.917983,-0.383307,-0.103029,-21.353455,-68.229173,21.356107
1783984347.7756,16:12:27.775,31,false,0.249732,-0.496643,0.445801,0.701599,0.922377,-0.384283,-0.116701,-21.371463,-68.210254,21.418711
1783984347.8067,16:12:27.806,0,false,0.249364,-0.496521,0.445374,0.702087,0.915541,-0.38819,-0.113283,-21.372716,-68.238088,21.415239
1783984347.838,16:12:27.838,1,false,0.248932,-0.496643,0.44519,0.702271,0.914076,-0.371099,-0.117189,-21.373844,-68.337908,21.337345
1783984347.8694,16:12:27.869,2,false,0.249289,-0.496582,0.445251,0.702148,0.91603,-0.363775,-0.109865,-21.300089,-68.323068,21.34201
1783984347.9007,16:12:27.900,3,false,0.249385,-0.496643,0.445129,0.702148,0.93312,-0.375982,-0.113283,-21.383249,-68.190083,21.316301
1783984347.9321,16:12:27.932,4,false,0.24936,-0.496765,0.445007,0.702148,0.934096,-0.376471,-0.123537,-21.248739,-68.20498,21.203439
1783984347.9634,16:12:27.963,5,false,0.249175,-0.496826,0.444946,0.702209,0.927749,-0.381353,-0.110353,-21.172541,-68.113711,21.311218
1783984347.9947,16:12:27.994,6,false,0.249297,-0.496765,0.444946,0.702209,0.933608,-0.377447,-0.116701,-21.178733,-68.106337,21.303541
1783984348.0259,16:12:28.025,7,false,0.249259,-0.496948,0.444763,0.702209,0.909682,-0.366705,-0.110353,-21.139443,-68.024932,21.221864
1783984348.057,16:12:28.057,8,false,0.249074,-0.497009,0.444702,0.702271,0.928725,-0.388678,-0.110353,-21.238667,-68.071298,21.342753
1783984348.0882,16:12:28.088,9,false,0.249074,-0.497009,0.444702,0.702271,0.92726,-0.386725,-0.106447,-21.283108,-67.96349,21.31697
1783984348.1193,16:12:28.119,10,false,0.248665,-0.497314,0.444397,0.702393,0.923354,-0.371099,-0.112306,-21.323104,-67.866462,21.174134
1783984348.1504,16:12:28.150,11,false,0.248602,-0.497314,0.444336,0.702454,0.940932,-0.386725,-0.109377,-21.269378,-67.913721,21.254935
1783984348.1816,16:12:28.181,12,false,0.248698,-0.497375,0.444214,0.702454,0.935561,-0.370611,-0.121096,-21.265885,-67.986162,21.252887
1783984348.2127,16:12:28.212,13,false,0.248846,-0.497192,0.444336,0.702454,0.935073,-0.375006,-0.12549,-21.187973,-67.946682,21.355721
1783984348.2441,16:12:28.244,14,false,0.248968,-0.497131,0.444336,0.702454,0.91603,-0.381353,-0.106935,-21.14776,-68.015827,21.373502
1783984348.2754,16:12:28.275,15,false,0.249179,-0.496948,0.444519,0.702393,0.921889,-0.378424,-0.098146,-21.186337,-68.04815,21.314736
1783984348.3067,16:12:28.306,16,false,0.248797,-0.496826,0.44458,0.702576,0.922866,-0.375982,-0.112795,-21.086472,-68.062287,21.396431
1783984348.3381,16:12:28.338,17,false,0.248548,-0.496887,0.444458,0.702698,0.93019,-0.375982,-0.115236,-21.205947,-68.194641,21.275556
1783984348.3694,16:12:28.369,18,false,0.248468,-0.497131,0.444519,0.702515,0.928725,-0.371588,-0.107424,-21.208798,-68.23899,21.376123
1783984348.4006,16:12:28.400,19,false,0.248726,-0.497192,0.444885,0.702148,0.926284,-0.373541,-0.115724,-21.286133,-68.248996,21.436725
1783984348.4317,16:12:28.431,20,false,0.248418,-0.497314,0.444824,0.702209,0.923842,-0.370611,-0.095216,-21.370688,-68.168279,21.252006
1783984348.4628,16:12:28.462,21,false,0.248194,-0.497559,0.44458,0.702271,0.930678,-0.375006,-0.104982,-21.252388,-67.990957,21.235297
1783984348.494,16:12:28.494,22,false,0.248366,-0.497559,0.44458,0.702209,0.937026,-0.384283,-0.117189,-21.265548,-68.010813,21.220259
1783984348.5251,16:12:28.525,23,false,0.248257,-0.497559,0.444641,0.702209,0.922866,-0.373053,-0.104005,-21.337208,-67.93896,21.251586
1783984348.5563,16:12:28.556,24,false,0.248443,-0.497498,0.444702,0.702148,0.917006,-0.3794,-0.114748,-21.326933,-67.904201,21.324642
1783984348.5874,16:12:28.587,25,false,0.248856,-0.497253,0.445129,0.701904,0.916518,-0.372564,-0.101564,-21.198054,-67.947686,21.345531
1783984348.6187,16:12:28.618,26,false,0.249523,-0.496826,0.445618,0.70166,0.936049,-0.371099,-0.111818,-21.216648,-68.076546,21.454054
1783984348.6501,16:12:28.650,27,false,0.24946,-0.496826,0.445557,0.701721,0.929213,-0.372564,-0.116213,-21.248337,-68.132705,21.387233
1783984348.6814,16:12:28.681,28,false,0.24941,-0.496765,0.445557,0.701782,0.923354,-0.393072,-0.118654,-21.336671,-67.988847,21.282232
1783984348.7128,16:12:28.712,29,false,0.24907,-0.496826,0.445679,0.701782,0.927749,-0.390143,-0.1084,-21.221773,-68.008914,21.322316
1783984348.7441,16:12:28.744,30,false,0.249246,-0.496887,0.445801,0.701599,0.917983,-0.388678,-0.112795,-21.118364,-68.131652,21.328484
1783984348.7754,16:12:28.775,31,false,0.249312,-0.496948,0.445984,0.701416,0.925795,-0.394537,-0.093751,-21.085112,-68.1823,21.39385
1783984348.8068,16:12:28.806,0,false,0.249483,-0.496948,0.445984,0.701355,0.919448,-0.375006,-0.109377,-21.129954,-68.018529,21.45268
1783984348.8381,16:12:28.838,1,false,0.249558,-0.496887,0.446106,0.701294,0.92726,-0.377447,-0.11133,-21.170312,-67.975813,21.430857
1783984348.8693,16:12:28.869,2,false,0.249571,-0.496826,0.446167,0.701294,0.927749,-0.384283,-0.107424,-21.131864,-67.90746,21.485986
1783984348.9004,16:12:28.900,3,false,0.249546,-0.496948,0.446045,0.701294,0.928725,-0.383307,-0.117189,-21.007539,-67.935666,21.401018
1783984348.9315,16:12:28.931,4,false,0.249278,-0.497192,0.445923,0.701294,0.918959,-0.367193,-0.098634,-21.000323,-67.961051,21.294638
1783984348.9627,16:12:28.962,5,false,0.249571,-0.497131,0.445923,0.701233,0.927749,-0.371588,-0.104005,-20.963921,-68.013805,21.273666
1783984348.994,16:12:28.994,6,false,0.249524,-0.497131,0.446045,0.701172,0.926284,-0.379889,-0.101564,-20.871343,-67.866884,21.299653
1783984349.0254,16:12:29.025,7,false,0.249378,-0.497314,0.445923,0.701172,0.929213,-0.393561,-0.101076,-20.907654,-67.764563,21.323041
1783984349.0567,16:12:29.056,8,false,0.249181,-0.497437,0.445801,0.701233,0.924819,-0.389654,-0.118166,-20.910427,-67.881827,21.299228
1783984349.0881,16:12:29.088,9,false,0.249243,-0.497437,0.445862,0.701172,0.904311,-0.369635,-0.093751,-20.883014,-67.837827,21.382474
1783984349.1194,16:12:29.119,10,false,0.249184,-0.497498,0.445923,0.701111,0.929213,-0.378912,-0.099611,-21.022835,-67.813181,21.39758
1783984349.1505,16:12:29.150,11,false,0.249565,-0.497314,0.446106,0.700989,0.920424,-0.366217,-0.087892,-21.058951,-67.880722,21.500898
1783984349.1817,16:12:29.181,12,false,0.249443,-0.497375,0.446106,0.700989,0.934096,-0.378912,-0.1084,-21.03164,-67.851786,21.549023
1783984349.213,16:12:29.213,13,false,0.249431,-0.497437,0.446045,0.700989,0.920424,-0.388678,-0.105959,-20.977152,-67.825744,21.592335
1783984349.2442,16:12:29.244,14,false,0.249334,-0.497375,0.446167,0.700989,0.923354,-0.386236,-0.103517,-21.017836,-67.787352,21.571501
1783984349.2753,16:12:29.275,15,false,0.249137,-0.497498,0.446045,0.70105,0.931167,-0.378912,-0.097658,-20.994637,-67.87243,21.492935
1783984349.3064,16:12:29.306,16,false,0.248852,-0.497742,0.44574,0.701172,0.926772,-0.380865,-0.112306,-20.973757,-67.844323,21.496995
1783984349.3376,16:12:29.337,17,false,0.24873,-0.497803,0.44574,0.701172,0.920424,-0.373541,-0.104494,-21.029734,-67.744258,21.470741
1783984349.3689,16:12:29.368,18,false,0.248915,-0.497742,0.445801,0.701111,0.926284,-0.369635,-0.101564,-21.050206,-67.833646,21.447112
1783984349.4003,16:12:29.400,19,false,0.249011,-0.497803,0.445679,0.701111,0.921401,-0.374517,-0.104494,-21.188262,-67.794464,21.410892
1783984349.4316,16:12:29.431,20,false,0.248977,-0.497742,0.445862,0.70105,0.921889,-0.384771,-0.101076,-21.222789,-67.699384,21.348387
1783984349.4629,16:12:29.462,21,false,0.24904,-0.497742,0.445923,0.700989,0.931167,-0.384283,-0.101076,-21.238909,-67.778305,21.501486
1783984349.4943,16:12:29.494,22,false,0.249115,-0.497681,0.446045,0.700928,0.931655,-0.389654,-0.102541,-21.283325,-67.699796,21.564506
1783984349.5256,16:12:29.525,23,false,0.249299,-0.49762,0.446106,0.700867,0.925795,-0.380865,-0.110842,-21.293392,-67.703906,21.546455
1783984349.5568,16:12:29.556,24,false,0.249346,-0.49762,0.445984,0.700928,0.931167,-0.376959,-0.104005,-21.227683,-67.752467,21.560116
1783984349.5879,16:12:29.587,25,false,0.249421,-0.497559,0.446106,0.700867,0.915053,-0.377935,-0.104005,-21.183499,-67.915803,21.557458
1783984349.619,16:12:29.619,26,false,0.249617,-0.497437,0.446228,0.700806,0.920424,-0.371588,-0.102052,-21.05401,-68.092713,21.614881
1783984349.6502,16:12:29.650,27,false,0.249508,-0.497437,0.446289,0.700806,0.915053,-0.38526,-0.109865,-20.952424,-68.01267,21.4273
1783984349.6813,16:12:29.681,28,false,0.249692,-0.497375,0.44635,0.700745,0.928237,-0.378424,-0.109865,-20.920811,-68.030355,21.497738
1783984349.7125,16:12:29.712,29,false,0.249705,-0.497314,0.446411,0.700745,0.928237,-0.3794,-0.114748,-20.997037,-68.046271,21.516271
1783984349.7436,16:12:29.743,30,false,0.249717,-0.497253,0.446472,0.700745,0.919448,-0.390143,-0.110842,-20.960964,-68.090503,21.532951
1783984349.7749,16:12:29.774,31,false,0.249655,-0.497253,0.446411,0.700806,0.917983,-0.390143,-0.103029,-21.01822,-68.145266,21.45824
1783984349.8063,16:12:29.806,0,false,0.249533,-0.497314,0.446411,0.700806,0.925307,-0.382818,-0.101564,-21.054798,-68.074922,21.480723
1783984349.8376,16:12:29.837,1,false,0.249127,-0.49762,0.446106,0.700928,0.923354,-0.381842,-0.116213,-21.117625,-67.906936,21.396281
1783984349.869,16:12:29.869,2,false,0.24893,-0.497742,0.445984,0.700989,0.923354,-0.377935,-0.115724,-21.054539,-67.92024,21.380098
1783984349.9003,16:12:29.900,3,false,0.248855,-0.497803,0.445862,0.70105,0.929702,-0.383795,-0.1084,-21.012715,-68.021937,21.485165
1783984349.9314,16:12:29.931,4,false,0.249006,-0.497681,0.446106,0.700928,0.920424,-0.386725,-0.094728,-20.900304,-67.993833,21.624586
1783984349.9626,16:12:29.962,5,false,0.249202,-0.497559,0.446228,0.700867,0.923842,-0.389654,-0.106935,-20.963627,-67.923679,21.615481
1783984349.9937,16:12:29.993,6,false,0.249081,-0.49762,0.446228,0.700867,0.923842,-0.378912,-0.107912,-20.886033,-67.98017,21.562424
1783984350.0249,16:12:30.024,7,false,0.24919,-0.49762,0.446167,0.700867,0.924331,-0.378424,-0.104005,-20.890968,-67.851566,21.649258
1783984350.056,16:12:30.056,8,false,0.249215,-0.497498,0.446289,0.700867,0.919448,-0.375494,-0.113771,-20.895409,-67.960131,21.652639
1783984350.0871,16:12:30.087,9,false,0.249262,-0.497498,0.446167,0.700928,0.914076,-0.38233,-0.11133,-20.779775,-67.848485,21.68559
1783984350.1183,16:12:30.118,10,false,0.249262,-0.497498,0.446167,0.700928,0.935561,-0.384771,-0.112795,-20.750474,-67.748003,21.670384
1783984350.1496,16:12:30.149,11,false,0.2492,-0.497498,0.446106,0.700989,0.917494,-0.391119,-0.106447,-20.873641,-67.807109,21.836145
1783984350.181,16:12:30.181,12,false,0.249471,-0.497314,0.44635,0.700867,0.918959,-0.386236,-0.103517,-20.805045,-67.77058,21.865699
1783984350.2123,16:12:30.212,13,false,0.249876,-0.497009,0.446655,0.700745,0.932143,-0.372076,-0.112795,-20.818079,-67.767612,21.847436
1783984350.2436,16:12:30.243,14,false,0.250059,-0.496948,0.446716,0.700684,0.934096,-0.3794,-0.120607,-20.814855,-67.645311,21.965584
1783984350.275,16:12:30.275,15,false,0.249913,-0.497131,0.446594,0.700684,0.921401,-0.374517,-0.112795,-20.976446,-67.699731,21.832656
1783984350.3063,16:12:30.306,16,false,0.249754,-0.49707,0.446655,0.700745,0.934585,-0.394537,-0.115724,-21.077016,-67.733756,21.847605
1783984350.3377,16:12:30.337,17,false,0.249938,-0.497009,0.446716,0.700684,0.921401,-0.369635,-0.110353,-21.122667,-67.61484,21.711521
1783984350.3688,16:12:30.368,18,false,0.249752,-0.497314,0.446289,0.700806,0.926284,-0.368658,-0.110353,-21.014215,-67.582585,21.693722
1783984350.4,16:12:30.400,19,false,0.249764,-0.497253,0.44635,0.700806,0.93312,-0.38233,-0.104494,-21.036239,-67.553555,21.677703
1783984350.4311,16:12:30.431,20,false,0.249801,-0.49707,0.446533,0.700806,0.926772,-0.386236,-0.112306,-21.175692,-67.542382,21.618424
1783984350.4622,16:12:30.462,21,false,0.250301,-0.496826,0.446716,0.700684,0.911635,-0.373541,-0.1084,-21.121752,-67.487465,21.744519
1783984350.4934,16:12:30.493,22,false,0.250118,-0.496887,0.446655,0.700745,0.924331,-0.370123,-0.110353,-21.088161,-67.542716,21.648652
1783984350.5247,16:12:30.524,23,false,0.24991,-0.49707,0.446472,0.700806,0.917494,-0.376471,-0.104494,-21.17756,-67.771888,21.532463
1783984350.5561,16:12:30.556,24,false,0.24991,-0.49707,0.446472,0.700806,0.919448,-0.384771,-0.111818,-21.138388,-67.753836,21.502662
1783984350.5874,16:12:30.587,25,false,0.249848,-0.49707,0.446411,0.700867,0.931167,-0.383307,-0.101076,-21.118087,-67.752542,21.311349
1783984350.6187,16:12:30.618,26,false,0.249664,-0.497131,0.44635,0.700928,0.912612,-0.387701,-0.120607,-21.054954,-67.811194,21.333567
1783984350.6501,16:12:30.650,27,false,0.249543,-0.497192,0.44635,0.700928,0.920912,-0.387701,-0.104982,-21.177581,-67.893888,21.248887
1783984350.6813,16:12:30.681,28,false,0.24986,-0.497009,0.446472,0.700867,0.922866,-0.383795,-0.105959,-21.123453,-67.878589,21.23249
1783984350.7125,16:12:30.712,29,false,0.249801,-0.49707,0.446533,0.700806,0.931655,-0.383795,-0.107424,-21.104646,-67.984451,21.322409
1783984350.7436,16:12:30.743,30,false,0.249947,-0.496887,0.446655,0.700806,0.921889,-0.385748,-0.115236,-21.192396,-68.019911,21.388383
1783984350.7747,16:12:30.774,31,false,0.250118,-0.496887,0.446655,0.700745,0.922377,-0.380377,-0.106935,-21.196602,-68.081734,21.328129
1783984350.8059,16:12:30.805,0,false,0.250009,-0.496887,0.446716,0.700745,0.92726,-0.386725,-0.116701,-21.170479,-68.167281,21.408484
1783984350.837,16:12:30.837,1,false,0.250205,-0.496765,0.446838,0.700684,0.937514,-0.373053,-0.108888,-21.132015,-68.154551,21.391081
1783984350.8682,16:12:30.868,2,false,0.250338,-0.496643,0.446899,0.700684,0.920424,-0.375982,-0.116213,-21.26189,-68.038417,21.495049
1783984350.8995,16:12:30.899,3,false,0.250521,-0.496582,0.44696,0.700623,0.922866,-0.376471,-0.115724,-21.15447,-68.083434,21.633482
1783984350.9308,16:12:30.930,4,false,0.250291,-0.496643,0.447021,0.700623,0.931167,-0.378912,-0.106447,-21.162468,-67.884689,21.698256
1783984350.9622,16:12:30.962,5,false,0.250412,-0.496582,0.447021,0.700623,0.917983,-0.376471,-0.111818,-21.169667,-68.034802,21.756553
1783984350.9935,16:12:30.993,6,false,0.250972,-0.496338,0.447266,0.700439,0.925795,-0.376471,-0.107912,-21.146238,-67.975505,21.68939
1783984351.0249,16:12:31.024,7,false,0.250644,-0.496582,0.447083,0.7005,0.923354,-0.371099,-0.104494,-21.125152,-68.026814,21.65885
1783984351.056,16:12:31.056,8,false,0.250668,-0.49646,0.447205,0.7005,0.931655,-0.381842,-0.1084,-21.061313,-68.058038,21.646318
1783984351.0871,16:12:31.087,9,false,0.250474,-0.496582,0.447083,0.700562,0.937514,-0.388678,-0.104494,-21.108535,-67.981463,21.56027
1783984351.1183,16:12:31.118,10,false,0.250523,-0.496643,0.447083,0.7005,0.909194,-0.375982,-0.107912,-20.911773,-68.077037,21.542643
1783984351.1494,16:12:31.149,11,false,0.250281,-0.496765,0.447083,0.7005,0.915053,-0.38233,-0.107912,-20.944041,-68.02847,21.437055
1783984351.1806,16:12:31.180,12,false,0.250195,-0.496887,0.446899,0.700562,0.919448,-0.374517,-0.104982,-21.00299,-68.029621,21.446702
1783984351.2117,16:12:31.211,13,false,0.250269,-0.496826,0.447021,0.7005,0.928237,-0.383307,-0.112795,-21.100906,-67.985795,21.425478
1783984351.2428,16:12:31.242,14,false,0.250074,-0.496948,0.446899,0.700562,0.918471,-0.390631,-0.106935,-21.18903,-67.916444,21.331606
1783984351.2742,16:12:31.274,15,false,0.250074,-0.496948,0.446899,0.700562,0.927749,-0.382818,-0.102052,-21.148711,-68.108244,21.277029
1783984351.3055,16:12:31.305,16,false,0.249769,-0.49707,0.446838,0.700623,0.921401,-0.375494,-0.104494,-21.172239,-68.19114,21.138187
1783984351.3369,16:12:31.336,17,false,0.249965,-0.496948,0.44696,0.700562,0.929213,-0.378912,-0.100587,-21.208369,-68.205932,21.252491
1783984351.3682,16:12:31.368,18,false,0.250148,-0.496887,0.447021,0.7005,0.923354,-0.382818,-0.107912,-21.330608,-68.159429,21.265641
1783984351.3995,16:12:31.399,19,false,0.250343,-0.496765,0.447144,0.700439,0.928725,-0.376471,-0.117678,-21.291085,-68.162438,21.202707
1783984351.4309,16:12:31.430,20,false,0.250234,-0.496765,0.447205,0.700439,0.924819,-0.376471,-0.098634,-21.210653,-68.180099,21.23579
1783984351.4622,16:12:31.462,21,false,0.250429,-0.496643,0.447327,0.700378,0.917494,-0.369146,-0.110842,-21.257894,-68.13618,21.25061
1783984351.4934,16:12:31.493,22,false,0.250429,-0.496643,0.447327,0.700378,0.914565,-0.379889,-0.103029,-21.270504,-68.141513,21.293856
1783984351.5245,16:12:31.524,23,false,0.249942,-0.496826,0.447205,0.7005,0.912612,-0.384283,-0.10547,-21.207084,-68.071545,21.123424
1783984351.5556,16:12:31.555,24,false,0.249942,-0.496826,0.447205,0.7005,0.931167,-0.388678,-0.121096,-21.254683,-67.933803,21.22425
1783984351.5868,16:12:31.586,25,false,0.24993,-0.496887,0.447144,0.7005,0.94435,-0.379889,-0.116213,-21.177891,-68.079005,21.255178
1783984351.6181,16:12:31.618,26,false,0.249734,-0.497009,0.447021,0.700562,0.926772,-0.371588,-0.109377,-21.198501,-68.090057,21.118521
1783984351.6495,16:12:31.649,27,false,0.249551,-0.49707,0.44696,0.700623,0.923842,-0.392584,-0.110842,-21.232004,-68.114957,21.160022
1783984351.6808,16:12:31.680,28,false,0.24966,-0.49707,0.446899,0.700623,0.927749,-0.382818,-0.11426,-21.172434,-68.15232,21.077742
1783984351.7122,16:12:31.712,29,false,0.249365,-0.497375,0.446533,0.700745,0.931167,-0.380865,-0.108888,-21.328174,-68.141086,21.123321
1783984351.7435,16:12:31.743,30,false,0.249059,-0.497498,0.446472,0.700806,0.922377,-0.384771,-0.102052,-21.318802,-68.011345,21.164342
1783984351.7748,16:12:31.774,31,false,0.248996,-0.497498,0.446411,0.700867,0.930678,-0.389166,-0.104005,-21.400091,-68.029162,21.1564
1783984351.806,16:12:31.806,0,false,0.248799,-0.49762,0.446289,0.700928,0.928725,-0.375982,-0.108888,-21.27885,-67.970428,21.179159
1783984351.8373,16:12:31.837,1,false,0.248996,-0.497498,0.446411,0.700867,0.916518,-0.382818,-0.104005,-21.423949,-68.007291,21.289366
1783984351.8685,16:12:31.868,2,false,0.249193,-0.497375,0.446533,0.700806,0.926284,-0.369635,-0.103029,-21.345184,-68.025514,21.373598
1783984351.8996,16:12:31.899,3,false,0.249365,-0.497375,0.446533,0.700745,0.925795,-0.389166,-0.117189,-21.124758,-67.922283,21.344729
1783984351.9307,16:12:31.930,4,false,0.249205,-0.497314,0.446594,0.700806,0.922866,-0.392584,-0.104494,-21.10582,-67.874237,21.453333
1783984351.9619,16:12:31.961,5,false,0.248996,-0.497498,0.446411,0.700867,0.925307,-0.373541,-0.107424,-21.058868,-67.860904,21.37163
1783984351.993,16:12:31.993,6,false,0.249059,-0.497498,0.446472,0.700806,0.921889,-0.377935,-0.112306,-20.956796,-67.804042,21.492497
1783984352.0244,16:12:32.024,7,false,0.24923,-0.497498,0.446472,0.700745,0.932143,-0.385748,-0.11426,-21.059331,-67.782774,21.541462
1783984352.0557,16:12:32.055,8,false,0.249427,-0.497375,0.446594,0.700684,0.923842,-0.3794,-0.109865,-21.031982,-67.86831,21.435992
1783984352.087,16:12:32.087,9,false,0.249243,-0.497437,0.446533,0.700745,0.931655,-0.384283,-0.107424,-21.052229,-67.765846,21.370977
1783984352.1184,16:12:32.118,10,false,0.249218,-0.497559,0.446411,0.700745,0.928725,-0.370611,-0.1084,-21.02559,-67.897936,21.387232
1783984352.1497,16:12:32.149,11,false,0.249476,-0.497437,0.446594,0.700623,0.925795,-0.372076,-0.104494,-21.091338,-67.927094,21.461677
1783984352.1811,16:12:32.181,12,false,0.249427,-0.497375,0.446594,0.700684,0.918471,-0.382818,-0.120119,-21.000973,-68.028106,21.453909
1783984352.2122,16:12:32.212,13,false,0.249548,-0.497314,0.446594,0.700684,0.926284,-0.378912,-0.112306,-21.054229,-67.984432,21.506733
1783984352.2433,16:12:32.243,14,false,0.249611,-0.497314,0.446655,0.700623,0.916518,-0.377935,-0.099123,-21.087205,-68.00494,21.464551
1783984352.2745,16:12:32.274,15,false,0.249856,-0.497253,0.446777,0.7005,0.932143,-0.383307,-0.097658,-21.027161,-67.888813,21.441542
1783984352.3056,16:12:32.305,16,false,0.249501,-0.497314,0.446716,0.700623,0.929213,-0.375006,-0.106935,-20.973121,-67.933837,21.346064
1783984352.3368,16:12:32.336,17,false,0.249489,-0.497375,0.446655,0.700623,0.923354,-0.375494,-0.11426,-20.969347,-67.809867,21.424626
1783984352.3679,16:12:32.367,18,false,0.249685,-0.497253,0.446777,0.700562,0.93019,-0.375982,-0.097658,-20.891181,-67.80297,21.45047
1783984352.3992,16:12:32.399,19,false,0.249548,-0.497314,0.446594,0.700684,0.933608,-0.375006,-0.112795,-21.000277,-67.856579,21.563453
1783984352.4306,16:12:32.430,20,false,0.249548,-0.497314,0.446594,0.700684,0.925307,-0.38526,-0.106447,-21.038649,-67.815104,21.620277
1783984352.4619,16:12:32.461,21,false,0.249548,-0.497314,0.446594,0.700684,0.925307,-0.390631,-0.108888,-21.132999,-67.897406,21.477017
1783984352.4933,16:12:32.493,22,false,0.249928,-0.497131,0.446777,0.700562,0.920912,-0.372564,-0.102052,-21.083329,-68.031294,21.467715
1783984352.5246,16:12:32.524,23,false,0.250002,-0.49707,0.446899,0.7005,0.918471,-0.390631,-0.104005,-21.05358,-68.062071,21.444389
1783984352.5557,16:12:32.555,24,false,0.249807,-0.497192,0.446777,0.700562,0.924331,-0.380865,-0.108888,-21.101575,-68.015,21.423396
1783984352.5869,16:12:32.586,25,false,0.249536,-0.497375,0.446533,0.700684,0.918471,-0.383307,-0.111818,-21.084956,-67.912821,21.269917
1783984352.618,16:12:32.618,26,false,0.24934,-0.497498,0.446411,0.700745,0.91603,-0.381842,-0.106935,-21.189629,-67.82086,21.251417
1783984352.6492,16:12:32.649,27,false,0.249168,-0.497498,0.446411,0.700806,0.925307,-0.372076,-0.106447,-21.134296,-67.857725,21.339444
1783984352.6803,16:12:32.680,28,false,0.248909,-0.49762,0.446228,0.700928,0.941421,-0.372076,-0.1084,-21.159266,-67.890905,21.164453
1783984352.7114,16:12:32.711,29,false,0.248758,-0.497742,0.445984,0.70105,0.924331,-0.372076,-0.114748,-21.286415,-67.920766,21.111637
1783984352.7426,16:12:32.742,30,false,0.248636,-0.497803,0.445984,0.70105,0.926284,-0.386725,-0.1084,-21.311127,-67.887826,21.228596
1783984352.7739,16:12:32.773,31,false,0.248846,-0.49762,0.446167,0.700989,0.931655,-0.370123,-0.102541,-21.378229,-67.962856,21.303951
1783984352.8053,16:12:32.805,0,false,0.248921,-0.497559,0.446289,0.700928,0.929702,-0.377935,-0.112306,-21.363851,-67.925707,21.431586
1783984352.8366,16:12:32.836,1,false,0.249302,-0.497375,0.446472,0.700806,0.931167,-0.381353,-0.106447,-21.30605,-68.146488,21.411873
1783984352.8679,16:12:32.867,2,false,0.249106,-0.497498,0.44635,0.700867,0.932631,-0.380865,-0.111818,-21.343752,-68.150791,21.409085
1783984352.8993,16:12:32.899,3,false,0.249118,-0.497437,0.446411,0.700867,0.921889,-0.375982,-0.11133,-21.228146,-68.184571,21.556114
1783984352.9306,16:12:32.930,4,false,0.249118,-0.497437,0.446411,0.700867,0.924819,-0.382818,-0.108888,-21.228777,-68.20002,21.598718
1783984352.962,16:12:32.962,5,false,0.249056,-0.497437,0.44635,0.700928,0.923354,-0.378912,-0.106447,-21.184483,-68.139154,21.592199
1783984352.9933,16:12:32.993,6,false,0.248737,-0.49762,0.446228,0.700989,0.921889,-0.381842,-0.099123,-21.204434,-68.14419,21.391932
1783984353.0245,16:12:33.024,7,false,0.249071,-0.497437,0.446533,0.700806,0.923842,-0.372076,-0.111818,-21.282205,-68.059,21.510769
1783984353.0556,16:12:33.055,8,false,0.249573,-0.497192,0.446716,0.700684,0.918959,-0.380377,-0.112795,-21.232569,-68.012236,21.513045
1783984353.0867,16:12:33.086,9,false,0.249476,-0.497131,0.446838,0.700684,0.91603,-0.378912,-0.116701,-21.232757,-68.044918,21.410417
1783984353.1179,16:12:33.117,10,false,0.249598,-0.49707,0.446838,0.700684,0.92726,-0.375006,-0.109377,-21.262835,-68.179009,21.422729
1783984353.1492,16:12:33.149,11,false,0.249218,-0.497253,0.446655,0.700806,0.920912,-0.3794,-0.108888,-21.304858,-68.060429,21.448763
1783984353.1806,16:12:33.180,12,false,0.249327,-0.497253,0.446594,0.700806,0.929213,-0.370611,-0.099123,-21.103418,-68.013522,21.352563
1783984353.2119,16:12:33.211,13,false,0.248981,-0.497498,0.446228,0.700989,0.915541,-0.380865,-0.111818,-21.161383,-67.956352,21.325798
1783984353.2432,16:12:33.243,14,false,0.248612,-0.49762,0.446106,0.701111,0.917006,-0.382818,-0.115236,-21.16869,-68.069392,21.271802
1783984353.2746,16:12:33.274,15,false,0.248536,-0.497681,0.445984,0.701172,0.935073,-0.383307,-0.105959,-21.175267,-68.066451,21.268068
1783984353.3059,16:12:33.305,16,false,0.248734,-0.497559,0.446106,0.701111,0.924819,-0.386725,-0.112795,-21.181186,-68.16848,21.219845
1783984353.3373,16:12:33.337,17,false,0.248831,-0.49762,0.445984,0.701111,0.926772,-0.378912,-0.104494,-21.126697,-67.991138,21.23626
1783984353.3686,16:12:33.368,18,false,0.248536,-0.497681,0.445984,0.701172,0.938491,-0.386236,-0.100099,-21.062704,-67.996022,21.191218
1783984353.3997,16:12:33.399,19,false,0.248536,-0.497681,0.445984,0.701172,0.936538,-0.374517,-0.111818,-21.00511,-68.030325,21.225449
1783984353.4309,16:12:33.430,20,false,0.248646,-0.497681,0.445923,0.701172,0.922377,-0.387213,-0.118654,-20.983183,-68.210737,21.22635
1783984353.462,16:12:33.462,21,false,0.24825,-0.497925,0.445679,0.701294,0.918471,-0.389166,-0.115236,-21.023264,-68.238523,21.137437
1783984353.4934,16:12:33.493,22,false,0.248263,-0.497864,0.44574,0.701294,0.922866,-0.369635,-0.104005,-20.969614,-68.099037,21.251816
1783984353.5247,16:12:33.524,23,false,0.248002,-0.497986,0.445557,0.701416,0.922866,-0.387701,-0.101076,-21.011052,-67.988455,21.235126
1783984353.556,16:12:33.556,24,false,0.248065,-0.497986,0.445618,0.701355,0.92726,-0.369146,-0.11426,-21.003484,-68.008561,21.324782
1783984353.5874,16:12:33.587,25,false,0.248237,-0.497986,0.445618,0.701294,0.936538,-0.380377,-0.101564,-21.131258,-67.892072,21.345657
1783984353.6187,16:12:33.618,26,false,0.248237,-0.497986,0.445618,0.701294,0.923354,-0.377447,-0.108888,-21.261209,-67.951724,21.379398
1783984353.6501,16:12:33.650,27,false,0.24825,-0.497925,0.445679,0.701294,0.924819,-0.375006,-0.116213,-21.288441,-67.990457,21.394811
1783984353.6812,16:12:33.681,28,false,0.248448,-0.497803,0.445801,0.701233,0.925795,-0.376471,-0.100587,-21.462488,-68.100086,21.408683
1783984353.7123,16:12:33.712,29,false,0.248599,-0.497681,0.446045,0.701111,0.918959,-0.379889,-0.100587,-21.37987,-68.109029,21.480984
1783984353.7435,16:12:33.743,30,false,0.249028,-0.497498,0.446106,0.70105,0.927749,-0.391119,-0.104494,-21.335421,-68.117078,21.575962
1783984353.7746,16:12:33.774,31,false,0.249028,-0.497498,0.446106,0.70105,0.923842,-0.373541,-0.107424,-21.325324,-68.169184,21.541811
1783984353.8058,16:12:33.805,0,false,0.248831,-0.49762,0.445984,0.701111,0.919448,-0.383307,-0.106447,-21.40596,-68.051586,21.421352
1783984353.8369,16:12:33.836,1,false,0.248373,-0.497864,0.445679,0.701294,0.933608,-0.370123,-0.112306,-21.239271,-68.080333,21.477432
1783984353.868,16:12:33.868,2,false,0.248558,-0.497803,0.44574,0.701233,0.916518,-0.379889,-0.111818,-21.268697,-68.106205,21.378365
1783984353.8992,16:12:33.899,3,false,0.248482,-0.497864,0.445618,0.701294,0.924819,-0.383307,-0.107424,-21.085827,-68.069675,21.34902
1783984353.9305,16:12:33.930,4,false,0.248221,-0.497986,0.445435,0.701416,0.922377,-0.386236,-0.1084,-21.175459,-68.021844,21.367471
1783984353.9619,16:12:33.961,5,false,0.248124,-0.497925,0.445557,0.701416,0.922377,-0.381353,-0.113771,-21.121543,-68.11338,21.369123
1783984353.9932,16:12:33.993,6,false,0.248221,-0.497986,0.445435,0.701416,0.923842,-0.369635,-0.101076,-21.177696,-68.076132,21.400518
1783984354.0245,16:12:34.024,7,false,0.248221,-0.497986,0.445435,0.701416,0.924819,-0.371588,-0.109377,-21.108603,-68.132332,21.458681
1783984354.0557,16:12:34.055,8,false,0.248554,-0.497742,0.445618,0.701355,0.918959,-0.373053,-0.109865,-21.166049,-68.21282,21.525981
1783984354.0868,16:12:34.086,9,false,0.248281,-0.497925,0.445374,0.701477,0.918471,-0.381353,-0.109377,-21.187844,-68.060951,21.437013
1783984354.118,16:12:34.118,10,false,0.248344,-0.497925,0.445435,0.701416,0.932631,-0.371099,-0.104494,-21.117736,-68.058854,21.491527
1783984354.1491,16:12:34.149,11,false,0.247934,-0.49823,0.445129,0.701538,0.924331,-0.390143,-0.098146,-21.174269,-68.07192,21.376096
