Timestamp,Local time,Counter,Interpolated,Accelerometer X,Accelerometer Y,Accelerometer Z,Magnetometer X,Magnetometer Y,Magnetometer Z,Quaternion 0,Quaternion 1,Quaternion 2,Quaternion 3
1784931439.4375,15:17:19.437,1,false,0.124539,-0.59137,0.288452,0.742676,0.951797,-0.299077,-0.16199,-25.045945,-53.903331,14.059953
1784931439.4686,15:17:19.468,2,false,0.125055,-0.590698,0.288818,0.742981,0.965469,-0.28687,-0.15906,-25.128365,-54.001058,14.044665
1784931439.4997,15:17:19.499,3,false,0.126434,-0.589233,0.289795,0.74353,0.981582,-0.273686,-0.161501,-25.127774,-54.029196,13.986044
1784931439.5309,15:17:19.530,4,false,0.127254,-0.589111,0.290466,0.743225,0.970352,-0.291264,-0.147341,-25.112288,-54.174152,13.993101
1784931439.562,15:17:19.562,5,false,0.128319,-0.589539,0.291626,0.742249,0.941543,-0.294682,-0.137575,-25.17312,-54.304612,13.999452
1784931439.5932,15:17:19.593,6,false,0.129272,-0.59021,0.292175,0.741333,0.933242,-0.291752,-0.137575,-25.07833,-54.317349,13.97526
1784931439.6245,15:17:19.624,7,false,0.129768,-0.590454,0.292236,0.741028,0.937148,-0.290288,-0.12195,-24.978066,-54.448443,13.92358
1784931439.6558,15:17:19.655,8,false,0.130601,-0.591187,0.291931,0.740417,0.93959,-0.28101,-0.126833,-24.962597,-54.461751,13.921929
1784931439.6872,15:17:19.687,9,false,0.131347,-0.591309,0.291504,0.740356,0.934707,-0.276616,-0.132692,-24.903813,-54.548497,13.920444
1784931439.7185,15:17:19.718,10,false,0.132426,-0.591125,0.291077,0.740479,0.94789,-0.265873,-0.143435,-24.821,-54.521892,13.844337
1784931439.7499,15:17:19.749,11,false,0.13305,-0.590698,0.291504,0.74054,0.959609,-0.271733,-0.146365,-24.821238,-54.632532,13.850611
1784931439.7812,15:17:19.781,12,false,0.133411,-0.590027,0.292542,0.740601,0.949844,-0.273198,-0.148318,-24.866313,-54.612477,13.841303
1784931439.8125,15:17:19.812,13,false,0.1343,-0.588806,0.294434,0.740662,0.961074,-0.283452,-0.147341,-24.876974,-54.594428,13.892742
1784931439.8437,15:17:19.843,14,false,0.134222,-0.588074,0.295776,0.740723,0.945937,-0.278569,-0.140993,-24.901522,-54.518368,13.998852
1784931439.8748,15:17:19.874,15,false,0.133119,-0.587524,0.297058,0.740845,0.950332,-0.295171,-0.137087,-24.908661,-54.509729,14.034535
1784931439.906,15:17:19.906,16,false,0.132803,-0.586792,0.29834,0.740967,0.979629,-0.294682,-0.138064,-24.855271,-54.546816,13.842343
1784931439.9371,15:17:19.937,17,false,0.133058,-0.586609,0.298889,0.740845,0.980606,-0.293217,-0.13904,-24.747405,-54.535333,13.833862
1784931439.9682,15:17:19.968,18,false,0.133807,-0.586914,0.299316,0.740295,0.968399,-0.28101,-0.146853,-24.919494,-54.674536,13.826229
1784931439.9994,15:17:19.999,19,false,0.133617,-0.587219,0.299255,0.740112,0.93959,-0.262455,-0.123903,-24.984652,-54.590466,13.864221
1784931440.0307,15:17:20.030,20,false,0.134106,-0.587585,0.299072,0.739807,0.935683,-0.289311,-0.127321,-25.013386,-54.679294,13.808691
1784931440.0621,15:17:20.062,21,false,0.134716,-0.587524,0.298767,0.739868,0.932753,-0.290776,-0.124392,-24.8598,-54.729332,13.803575
1784931440.0934,15:17:20.093,22,false,0.135708,-0.587219,0.298767,0.739929,0.963516,-0.294194,-0.136599,-24.736527,-54.609874,13.918602
1784931440.1247,15:17:20.124,23,false,0.136306,-0.58728,0.298828,0.739746,0.93959,-0.264897,-0.128786,-24.77512,-54.577131,13.947357
1784931440.1561,15:17:20.156,24,false,0.136374,-0.587341,0.298828,0.739685,0.95082,-0.268315,-0.123903,-24.854715,-54.652339,13.898467
1784931440.1874,15:17:20.187,25,false,0.136573,-0.58728,0.298706,0.739746,0.94789,-0.27808,-0.125368,-25.001119,-54.675165,13.854466
1784931440.2187,15:17:20.218,26,false,0.135922,-0.587524,0.298523,0.739746,0.942031,-0.289311,-0.140993,-24.938484,-54.516263,13.814865
1784931440.2499,15:17:20.249,27,false,0.135592,-0.587646,0.298584,0.739685,0.952773,-0.288334,-0.12488,-25.03165,-54.597558,13.95867
1784931440.281,15:17:20.281,28,false,0.135594,-0.587769,0.298645,0.739563,0.949355,-0.289311,-0.124392,-25.04073,-54.566046,13.983418
1784931440.3122,15:17:20.312,29,false,0.135526,-0.587891,0.298889,0.73938,0.951308,-0.285893,-0.138064,-24.914318,-54.627409,13.96083
1784931440.3433,15:17:20.343,30,false,0.136084,-0.587463,0.299927,0.739197,0.955703,-0.295659,-0.142947,-24.845408,-54.533097,14.075085
1784931440.3746,15:17:20.374,31,false,0.136044,-0.58728,0.300903,0.738953,0.963516,-0.292729,-0.140017,-24.798344,-54.717386,14.088191
1784931440.406,15:17:20.406,0,false,0.136524,-0.587097,0.301941,0.738586,0.951797,-0.295171,-0.123415,-24.741032,-54.793522,14.159802
1784931440.4373,15:17:20.437,1,false,0.136762,-0.587463,0.302612,0.737976,0.960098,-0.281987,-0.123415,-24.76422,-54.787276,14.284068
1784931440.4687,15:17:20.468,2,false,0.137088,-0.58783,0.302795,0.737549,0.964981,-0.28687,-0.12488,-24.770136,-54.796608,14.351045
1784931440.5,15:17:20.500,3,false,0.136955,-0.588684,0.302979,0.736816,0.942519,-0.279545,-0.12488,-24.596014,-54.864823,14.351509
1784931440.5313,15:17:20.531,4,false,0.137276,-0.588928,0.303101,0.736511,0.95375,-0.283452,-0.116091,-24.499119,-54.761723,14.44165
1784931440.5627,15:17:20.562,5,false,0.137635,-0.589661,0.303589,0.735657,0.951797,-0.282963,-0.125368,-24.531545,-54.713795,14.343331
1784931440.5938,15:17:20.593,6,false,0.137493,-0.590271,0.30365,0.735168,0.951797,-0.282963,-0.128786,-24.590636,-54.730476,14.299705
1784931440.625,15:17:20.625,7,false,0.138212,-0.59137,0.304138,0.733948,0.971328,-0.28101,-0.119509,-24.628864,-54.850165,14.454842
1784931440.6561,15:17:20.656,8,false,0.138917,-0.591736,0.304871,0.733215,0.943984,-0.274662,-0.10486,-24.693177,-54.838254,14.489788
1784931440.6872,15:17:20.687,9,false,0.139246,-0.59198,0.30542,0.732727,0.957656,-0.271733,-0.112184,-24.79592,-54.677996,14.521239
1784931440.7184,15:17:20.718,10,false,0.139341,-0.592712,0.30542,0.732117,0.955215,-0.255131,-0.096071,-24.828573,-54.638441,14.48973
1784931440.7495,15:17:20.749,11,false,0.139454,-0.593201,0.305298,0.73175,0.942031,-0.257572,-0.092164,-24.857961,-54.55798,14.506234
1784931440.7809,15:17:20.780,12,false,0.138957,-0.59375,0.304749,0.731628,0.943008,-0.273198,-0.094606,-24.794687,-54.575288,14.595856
1784931440.8122,15:17:20.812,13,false,0.138045,-0.593994,0.304688,0.731628,0.960586,-0.291752,-0.099977,-24.81251,-54.635727,14.721378
1784931440.8435,15:17:20.843,14,false,0.137537,-0.593811,0.304688,0.731873,0.943984,-0.304448,-0.10486,-24.753781,-54.794798,14.654901
1784931440.8749,15:17:20.874,15,false,0.137348,-0.592712,0.305298,0.732544,0.942031,-0.320562,-0.116091,-24.805603,-54.833286,14.669841
1784931440.9062,15:17:20.906,16,false,0.137463,-0.592346,0.305664,0.732666,0.948379,-0.290776,-0.122927,-24.837288,-54.882879,14.668334
1784931440.9376,15:17:20.937,17,false,0.138594,-0.591553,0.306396,0.732788,0.960098,-0.273198,-0.125856,-24.910666,-54.927512,14.622115
1784931440.9687,15:17:20.968,18,false,0.139653,-0.591492,0.306763,0.732483,0.955215,-0.272221,-0.115602,-24.916891,-54.982636,14.670242
1784931440.9998,15:17:20.999,19,false,0.140988,-0.591614,0.307373,0.731873,0.943008,-0.282963,-0.105348,-24.862678,-55.047202,14.728509
1784931441.031,15:17:21.031,20,false,0.142157,-0.591553,0.307678,0.731567,0.963027,-0.282475,-0.098024,-24.903609,-54.98568,14.736089
1784931441.0621,15:17:21.062,21,false,0.142349,-0.591614,0.307617,0.731506,0.95082,-0.262455,-0.110719,-24.985309,-54.960218,14.698049
1784931441.0932,15:17:21.093,22,false,0.14331,-0.59137,0.307495,0.731567,0.95668,-0.274662,-0.114137,-24.999023,-54.952256,14.798397
1784931441.1244,15:17:21.124,23,false,0.143525,-0.591003,0.307373,0.731873,0.950332,-0.295171,-0.126833,-25.086136,-54.915182,14.739172
1784931441.1557,15:17:21.155,24,false,0.145103,-0.589905,0.307434,0.732422,0.972305,-0.292241,-0.145876,-25.149583,-54.941632,14.775593
1784931441.1871,15:17:21.187,25,false,0.146371,-0.590332,0.306885,0.732056,0.954238,-0.258549,-0.128298,-25.191731,-54.905621,14.823326
1784931441.2184,15:17:21.218,26,false,0.14798,-0.591187,0.306213,0.731323,0.943496,-0.253666,-0.125856,-25.124988,-54.933026,14.851331
1784931441.2497,15:17:21.249,27,false,0.149222,-0.591736,0.306152,0.730652,0.947402,-0.259525,-0.109743,-25.124735,-54.972645,14.936351
1784931441.2811,15:17:21.281,28,false,0.14919,-0.591919,0.306396,0.730408,0.960098,-0.263432,-0.115114,-25.124507,-54.903625,14.863331
1784931441.3124,15:17:21.312,29,false,0.149162,-0.592346,0.306458,0.730042,0.964492,-0.26392,-0.112673,-25.139255,-54.781691,14.887336
1784931441.3436,15:17:21.343,30,false,0.148236,-0.592896,0.307007,0.729553,0.969863,-0.27808,-0.099489,-25.152529,-54.671951,14.98371
1784931441.3747,15:17:21.374,31,false,0.146915,-0.593445,0.307739,0.729065,0.971817,-0.267826,-0.10486,-25.119614,-54.558231,15.01063
1784931441.4058,15:17:21.405,0,false,0.144672,-0.594482,0.308533,0.728333,0.931289,-0.299565,-0.088258,-25.209621,-54.500745,15.124582
1784931441.437,15:17:21.437,1,false,0.144133,-0.594604,0.308838,0.72821,0.970352,-0.295171,-0.104372,-25.275673,-54.508823,15.137416
1784931441.4681,15:17:21.468,2,false,0.142084,-0.595398,0.309265,0.727783,0.950332,-0.300542,-0.078981,-25.275305,-54.605816,15.059243
1784931441.4993,15:17:21.499,3,false,0.141446,-0.595764,0.30957,0.727478,0.931289,-0.30396,-0.075563,-25.125435,-54.61834,15.093564
1784931441.5306,15:17:21.530,4,false,0.139895,-0.59613,0.30957,0.727478,0.945449,-0.295659,-0.098024,-25.28963,-54.554843,15.169315
1784931441.5619,15:17:21.561,5,false,0.139305,-0.596375,0.309509,0.727417,0.949355,-0.310796,-0.088746,-25.347681,-54.63228,15.252445
1784931441.5933,15:17:21.593,6,false,0.138499,-0.596436,0.309753,0.727417,0.957168,-0.302983,-0.098512,-25.250389,-54.627204,15.327261
1784931441.6246,15:17:21.624,7,false,0.137107,-0.596313,0.311035,0.727234,0.952285,-0.315679,-0.082887,-25.282457,-54.697405,15.364688
1784931441.6559,15:17:21.655,8,false,0.135853,-0.596313,0.312012,0.727051,0.945449,-0.322026,-0.091188,-25.430949,-54.70077,15.338558
1784931441.687,15:17:21.687,9,false,0.13462,-0.596497,0.312622,0.726868,0.947402,-0.32398,-0.092164,-25.4001,-54.688845,15.434671
1784931441.7181,15:17:21.718,10,false,0.13328,-0.597168,0.313049,0.726379,0.955215,-0.319097,-0.08191,-25.447104,-54.708021,15.491265
1784931441.7493,15:17:21.749,11,false,0.132714,-0.597717,0.313232,0.725952,0.938125,-0.2981,-0.086305,-25.549224,-54.859863,15.482384
1784931441.7804,15:17:21.780,12,false,0.132266,-0.598389,0.312988,0.725586,0.945449,-0.292241,-0.076051,-25.506547,-54.906798,15.534206
1784931441.8116,15:17:21.811,13,false,0.131426,-0.598755,0.3125,0.725647,0.958633,-0.290776,-0.094606,-25.453184,-54.963993,15.356539
1784931441.8427,15:17:21.842,14,false,0.131003,-0.59906,0.311951,0.725708,0.949844,-0.280034,-0.08777,-25.509834,-54.9407,15.256454
1784931441.8738,15:17:21.873,15,false,0.129309,-0.599365,0.311218,0.726074,0.961563,-0.285893,-0.100465,-25.590726,-55.009459,15.360777
1784931441.9052,15:17:21.905,16,false,0.128692,-0.599487,0.311096,0.726135,0.977676,-0.299565,-0.089235,-25.603714,-55.176019,15.514484
1784931441.9365,15:17:21.936,17,false,0.12781,-0.600098,0.310425,0.726074,0.939101,-0.309331,-0.088746,-25.645311,-55.176385,15.622912
1784931441.9678,15:17:21.967,18,false,0.127214,-0.600403,0.309937,0.726135,0.943984,-0.282475,-0.092653,-25.742564,-55.146806,15.630774
1784931441.9992,15:17:21.999,19,false,0.126058,-0.60144,0.308105,0.726257,0.955215,-0.294194,-0.090211,-25.800184,-55.194954,15.592988
1784931442.0305,15:17:22.030,20,false,0.126225,-0.60199,0.307251,0.726135,0.947402,-0.299565,-0.084352,-25.822134,-55.193427,15.618797
1784931442.0619,15:17:22.061,21,false,0.125117,-0.602722,0.305542,0.72644,0.942031,-0.298589,-0.087282,-25.88675,-55.117282,15.716793
1784931442.0932,15:17:22.093,22,false,0.125316,-0.602966,0.304688,0.726563,0.95375,-0.28687,-0.083375,-25.810321,-55.213244,15.610591
1784931442.1243,15:17:22.124,23,false,0.125768,-0.603149,0.304138,0.726563,0.958145,-0.289799,-0.094118,-25.876119,-55.284657,15.664546
1784931442.1555,15:17:22.155,24,false,0.125984,-0.603333,0.303101,0.726807,0.948867,-0.281498,-0.086793,-25.935337,-55.12462,15.757968
1784931442.1866,15:17:22.186,25,false,0.126941,-0.602966,0.302551,0.727173,0.951308,-0.271733,-0.105837,-25.89891,-55.040403,15.677555
1784931442.2178,15:17:22.217,26,false,0.127738,-0.602356,0.302551,0.727539,0.965469,-0.281498,-0.112184,-25.88108,-55.05433,15.650046
1784931442.2489,15:17:22.248,27,false,0.129138,-0.601196,0.303528,0.727844,0.95375,-0.289311,-0.099001,-25.640725,-55.141634,15.595379
1784931442.2802,15:17:22.280,28,false,0.129995,-0.600586,0.304077,0.727966,0.960586,-0.285893,-0.110231,-25.633759,-55.055715,15.635902
1784931442.3116,15:17:22.311,29,false,0.131198,-0.599792,0.304688,0.728149,0.94789,-0.279057,-0.105348,-25.642444,-55.068111,15.58265
1784931442.3429,15:17:22.342,30,false,0.131549,-0.599548,0.304871,0.72821,0.95082,-0.274174,-0.105348,-25.739983,-54.989544,15.654354
1784931442.3743,15:17:22.374,31,false,0.132818,-0.598572,0.306091,0.728271,0.942519,-0.302983,-0.097536,-25.693184,-55.113234,15.703933
1784931442.4056,15:17:22.405,0,false,0.13377,-0.597839,0.307251,0.72821,0.94789,-0.295171,-0.096559,-25.651065,-55.119878,15.539201
1784931442.4367,15:17:22.436,1,false,0.136058,-0.596008,0.309937,0.728149,0.948379,-0.304448,-0.084352,-25.523435,-55.170719,15.450757
1784931442.4679,15:17:22.467,2,false,0.139496,-0.593323,0.313965,0.727966,0.937148,-0.310796,-0.083864,-25.617921,-55.246384,15.520696
1784931442.499,15:17:22.499,3,false,0.141179,-0.591919,0.315857,0.727966,0.941543,-0.325933,-0.082887,-25.43379,-55.164944,15.553734
1784931442.5302,15:17:22.530,4,false,0.148742,-0.586731,0.322144,0.727905,0.947402,-0.327398,-0.100954,-25.477425,-55.330909,15.598422
1784931442.5613,15:17:22.561,5,false,0.155257,-0.582886,0.326843,0.727539,0.932265,-0.326909,-0.099489,-25.412021,-55.33074,15.459194
1784931442.5924,15:17:22.592,6,false,0.167303,-0.575928,0.335693,0.726379,0.944472,-0.311772,-0.108766,-25.398018,-55.465172,15.393705
1784931442.6238,15:17:22.623,7,false,0.17591,-0.570923,0.342285,0.72522,0.953262,-0.31812,-0.123415,-25.295692,-55.631022,15.349719
1784931442.6551,15:17:22.655,8,false,0.185852,-0.565857,0.349121,0.72345,0.950332,-0.319585,-0.125856,-25.368091,-55.690564,15.295177
1784931442.6864,15:17:22.686,9,false,0.201413,-0.558777,0.358948,0.719971,0.949844,-0.292729,-0.128298,-25.268758,-55.803967,15.365721
1784931442.7178,15:17:22.717,10,false,0.212605,-0.553589,0.365723,0.717346,0.946914,-0.288823,-0.126833,-25.059728,-56.160246,15.42921
1784931442.7491,15:17:22.749,11,false,0.223812,-0.548218,0.372559,0.714539,0.935683,-0.293217,-0.128786,-24.916462,-56.376219,15.381673
1784931442.7805,15:17:22.780,12,false,0.239341,-0.540283,0.38208,0.71051,0.935683,-0.257572,-0.12488,-24.772569,-56.585549,15.353843
1784931442.8118,15:17:22.811,13,false,0.249317,-0.535156,0.387634,0.707947,0.949355,-0.273198,-0.126345,-24.747742,-56.878623,15.298889
1784931442.8429,15:17:22.842,14,false,0.263419,-0.527954,0.394897,0.704224,0.949355,-0.278569,-0.125856,-24.650629,-57.037713,15.174662
1784931442.8741,15:17:22.874,15,false,0.267676,-0.525635,0.396973,0.703186,0.931777,-0.264408,-0.134646,-24.473504,-57.375294,15.182487
1784931442.9052,15:17:22.905,16,false,0.280053,-0.517944,0.40271,0.700806,0.949355,-0.26099,-0.144411,-24.373906,-57.634255,15.204484
1784931442.9364,15:17:22.936,17,false,0.288008,-0.51239,0.406311,0.699585,0.957656,-0.275639,-0.153201,-24.359038,-57.86732,15.269143
1784931442.9675,15:17:22.967,18,false,0.298308,-0.505249,0.411255,0.697571,0.964981,-0.264408,-0.161013,-24.270887,-58.181755,15.252567
1784931442.9986,15:17:22.998,19,false,0.304584,-0.501099,0.414307,0.696045,0.962539,-0.271733,-0.166873,-24.221459,-58.464747,15.237648
1784931443.0298,15:17:23.029,20,false,0.310371,-0.497253,0.417297,0.694458,0.961563,-0.268315,-0.167361,-24.027436,-58.64467,15.224221
1784931443.0611,15:17:23.061,21,false,0.318229,-0.492432,0.420532,0.692383,0.964004,-0.277592,-0.176638,-23.897676,-58.986047,15.212137
1784931443.0925,15:17:23.092,22,false,0.323268,-0.489746,0.422729,0.690613,0.969863,-0.273686,-0.181033,-23.780892,-59.263379,15.3508
1784931443.1238,15:17:23.123,23,false,0.32809,-0.487244,0.424988,0.688721,0.959609,-0.252201,-0.17615,-23.645879,-59.632609,15.520458
1784931443.1551,15:17:23.155,24,false,0.334563,-0.483948,0.42804,0.686035,0.943496,-0.259037,-0.184939,-23.509414,-59.725654,15.583427
1784931443.1865,15:17:23.186,25,false,0.339137,-0.48175,0.429749,0.684265,0.95082,-0.255619,-0.170291,-23.44641,-59.914071,15.595237
1784931443.2178,15:17:23.217,26,false,0.345739,-0.478821,0.432312,0.681396,0.960098,-0.251225,-0.176638,-23.344845,-60.038785,15.785313
1784931443.249,15:17:23.249,27,false,0.349655,-0.477173,0.43396,0.679504,0.964004,-0.239506,-0.178592,-23.417929,-60.225797,15.836751
1784931443.2801,15:17:23.280,28,false,0.353515,-0.475403,0.43573,0.677612,0.952285,-0.238529,-0.178103,-23.438843,-60.3642,15.927906
1784931443.3114,15:17:23.311,29,false,0.358887,-0.472778,0.438354,0.674927,0.945449,-0.233158,-0.174685,-23.442712,-60.533624,15.994992
1784931443.3426,15:17:23.342,30,false,0.362192,-0.471191,0.440063,0.673157,0.942031,-0.24097,-0.174197,-23.341517,-60.745921,16.204907
1784931443.3737,15:17:23.373,31,false,0.366494,-0.469116,0.44281,0.670471,0.959121,-0.236088,-0.174685,-23.385026,-60.996804,16.244293
1784931443.405,15:17:23.405,0,false,0.36788,-0.468445,0.443848,0.669495,0.95375,-0.248295,-0.174197,-23.349415,-61.147829,16.384417
1784931443.4364,15:17:23.436,1,false,0.372125,-0.466919,0.446228,0.666626,0.960098,-0.215091,-0.16492,-23.317365,-61.283752,16.465667
1784931443.4677,15:17:23.467,2,false,0.374848,-0.466125,0.447327,0.664917,0.950332,-0.215091,-0.157595,-23.273566,-61.346267,16.598607
1784931443.4991,15:17:23.499,3,false,0.378016,-0.464355,0.449036,0.663208,0.951797,-0.250248,-0.16492,-23.353778,-61.402531,16.568715
1784931443.5304,15:17:23.530,4,false,0.379714,-0.462769,0.4505,0.662354,0.959609,-0.24976,-0.155642,-23.381107,-61.453168,16.616582
1784931443.5617,15:17:23.561,5,false,0.381647,-0.460876,0.452148,0.661438,0.95082,-0.268803,-0.161501,-23.405704,-61.498742,16.704523
1784931443.5931,15:17:23.593,6,false,0.385054,-0.457703,0.454529,0.660034,0.946426,-0.239994,-0.168338,-23.278302,-61.614527,16.78367
1784931443.6242,15:17:23.624,7,false,0.387615,-0.455566,0.455383,0.659424,0.931289,-0.237064,-0.176638,-23.313179,-61.718734,16.810041
1784931443.6554,15:17:23.655,8,false,0.390501,-0.453308,0.456055,0.658813,0.949844,-0.246342,-0.17615,-23.195029,-61.782612,16.803867
1784931443.6865,15:17:23.686,9,false,0.394086,-0.449829,0.457031,0.658386,0.966934,-0.252201,-0.19324,-23.163464,-61.840103,16.932895
1784931443.7176,15:17:23.717,10,false,0.39623,-0.44751,0.458069,0.657959,0.954726,-0.247807,-0.19617,-23.135055,-61.95166,16.914436
1784931443.7488,15:17:23.748,11,false,0.39878,-0.444702,0.45929,0.657471,0.942519,-0.238041,-0.191287,-23.109488,-62.171692,17.0025
1784931443.7799,15:17:23.779,12,false,0.39947,-0.443848,0.459778,0.657288,0.95082,-0.257084,-0.196658,-22.877123,-62.160367,16.992034
1784931443.8113,15:17:23.811,13,false,0.401155,-0.441589,0.461182,0.656799,0.948379,-0.251225,-0.188846,-22.832487,-62.284759,17.177014
1784931443.8426,15:17:23.842,14,false,0.402232,-0.440552,0.46167,0.656494,0.955703,-0.24683,-0.186404,-22.792314,-62.292035,17.164051
1784931443.8739,15:17:23.873,15,false,0.403744,-0.43927,0.462524,0.655823,0.945449,-0.247318,-0.187381,-22.68139,-62.47803,17.122476
1784931443.9053,15:17:23.905,16,false,0.404795,-0.438049,0.463196,0.655518,0.942519,-0.260014,-0.187869,-22.761004,-62.555702,17.174782
1784931443.9366,15:17:23.936,17,false,0.405072,-0.437744,0.463501,0.655334,0.969375,-0.26392,-0.178592,-22.578441,-62.565791,17.162041
1784931443.968,15:17:23.968,18,false,0.405139,-0.437195,0.464478,0.654968,0.951797,-0.260502,-0.171267,-22.533766,-62.754318,17.150575
1784931443.9991,15:17:23.999,19,false,0.405386,-0.437073,0.464722,0.654724,0.958633,-0.259037,-0.185428,-22.478604,-62.804361,17.050533
1784931444.0302,15:17:24.030,20,false,0.405977,-0.43689,0.464722,0.65448,0.960098,-0.257572,-0.184451,-22.548589,-62.894261,17.095079
1784931444.0614,15:17:24.061,21,false,0.406399,-0.436707,0.464783,0.654297,0.944961,-0.258061,-0.192752,-22.387268,-63.020033,17.165078
1784931444.0925,15:17:24.092,22,false,0.406386,-0.436707,0.464966,0.654175,0.931777,-0.255131,-0.188357,-22.451433,-63.043505,17.213124
1784931444.1237,15:17:24.123,23,false,0.406269,-0.436218,0.466125,0.653748,0.974746,-0.257572,-0.1991,-22.374596,-63.034721,17.166641
1784931444.155,15:17:24.155,24,false,0.405774,-0.436157,0.467041,0.653442,0.959121,-0.271244,-0.183474,-22.350305,-62.996909,17.079946
1784931444.1863,15:17:24.186,25,false,0.404887,-0.43634,0.467896,0.653259,0.946426,-0.266361,-0.173709,-22.163951,-63.12737,17.091643
1784931444.2177,15:17:24.217,26,false,0.40374,-0.43634,0.469055,0.653137,0.93666,-0.276616,-0.172244,-22.190632,-63.1102,17.191894
1784931444.249,15:17:24.249,27,false,0.402975,-0.436157,0.469543,0.653381,0.946426,-0.27808,-0.167361,-22.274461,-62.975117,17.237258
1784931444.2804,15:17:24.280,28,false,0.402151,-0.435608,0.46991,0.653992,0.944472,-0.270268,-0.192264,-22.275137,-62.883449,17.307993
1784931444.3117,15:17:24.311,29,false,0.402146,-0.435364,0.469971,0.654114,0.947402,-0.282475,-0.188357,-22.186022,-63.010302,17.386608
1784931444.343,15:17:24.343,30,false,0.40161,-0.435059,0.470032,0.654602,0.960098,-0.271244,-0.185916,-22.03105,-63.079608,17.352685
1784931444.3742,15:17:24.374,31,false,0.400942,-0.435425,0.470093,0.654724,0.949844,-0.283452,-0.190799,-22.02616,-63.12703,17.157663
1784931444.4053,15:17:24.405,0,false,0.399802,-0.43634,0.470215,0.654724,0.943008,-0.272221,-0.187869,-21.991851,-63.229525,17.146634
1784931444.4364,15:17:24.436,1,false,0.399368,-0.437195,0.470215,0.654419,0.969375,-0.26392,-0.180056,-21.856296,-63.172232,17.136709
1784931444.4676,15:17:24.467,2,false,0.399114,-0.438232,0.470398,0.653748,0.954726,-0.261967,-0.166873,-21.898789,-63.210392,17.112822
1784931444.4987,15:17:24.498,3,false,0.39906,-0.439575,0.470886,0.652527,0.945449,-0.247318,-0.15906,-21.847309,-63.30455,17.151139
1784931444.5299,15:17:24.529,4,false,0.398864,-0.440125,0.47113,0.6521,0.949355,-0.252689,-0.158083,-21.860793,-63.329478,17.200579
1784931444.5612,15:17:24.561,5,false,0.398673,-0.440308,0.471375,0.651917,0.942519,-0.26392,-0.144411,-21.887882,-63.336959,17.155351
1784931444.5925,15:17:24.592,6,false,0.398781,-0.440063,0.47168,0.651794,0.954726,-0.277104,-0.148318,-21.94217,-63.448369,17.249231
1784931444.6239,15:17:24.623,7,false,0.398701,-0.439209,0.47229,0.651978,0.951308,-0.267826,-0.159548,-22.035891,-63.473868,17.378584
1784931444.6552,15:17:24.655,8,false,0.399022,-0.437683,0.473267,0.6521,0.950332,-0.277592,-0.170779,-22.04547,-63.422049,17.315556
1784931444.6866,15:17:24.686,9,false,0.399548,-0.437195,0.473694,0.651794,0.942519,-0.268315,-0.166873,-22.20363,-63.420273,17.393415
1784931444.7179,15:17:24.717,10,false,0.400286,-0.437256,0.473938,0.651123,0.944472,-0.280034,-0.16199,-22.196436,-63.373813,17.403673
1784931444.7492,15:17:24.749,11,false,0.401522,-0.4375,0.474426,0.649841,0.957168,-0.274662,-0.166384,-22.100238,-63.317045,17.382997
1784931444.7804,15:17:24.780,12,false,0.401985,-0.4375,0.475037,0.649109,0.954726,-0.259037,-0.171756,-22.237967,-63.415492,17.439159
1784931444.8115,15:17:24.811,13,false,0.402102,-0.43811,0.475708,0.648132,0.943984,-0.254154,-0.150271,-22.242293,-63.474187,17.414935
1784931444.8427,15:17:24.842,14,false,0.401986,-0.438354,0.47583,0.647949,0.929824,-0.265873,-0.143923,-22.171417,-63.55692,17.512764
1784931444.8738,15:17:24.873,15,false,0.401389,-0.438721,0.47583,0.648071,0.953262,-0.26685,-0.161013,-22.167444,-63.541657,17.511087
1784931444.9049,15:17:24.904,16,false,0.400792,-0.43866,0.475891,0.648438,0.957168,-0.265873,-0.162966,-22.223683,-63.542874,17.449762
1784931444.9363,15:17:24.936,17,false,0.400094,-0.438599,0.475952,0.648865,0.961563,-0.272221,-0.169802,-22.154668,-63.514061,17.469339
1784931444.9676,15:17:24.967,18,false,0.399353,-0.43866,0.475769,0.649414,0.951797,-0.262943,-0.17615,-22.15237,-63.353546,17.472005
1784931444.999,15:17:24.999,19,false,0.39837,-0.438782,0.475647,0.650024,0.955215,-0.273198,-0.179568,-22.314793,-63.373574,17.444496
1784931445.0303,15:17:25.030,20,false,0.39637,-0.439392,0.475586,0.650879,0.957656,-0.280034,-0.168826,-22.386206,-63.391599,17.599184
1784931445.0614,15:17:25.061,21,false,0.395128,-0.440125,0.475525,0.651184,0.946914,-0.276616,-0.157595,-22.465431,-63.422776,17.648681
1784931445.0926,15:17:25.092,22,false,0.393876,-0.44104,0.475464,0.651367,0.953262,-0.28687,-0.155154,-22.372241,-63.435881,17.648366
1784931445.1237,15:17:25.123,23,false,0.392762,-0.442261,0.475586,0.651123,0.9308,-0.270756,-0.153689,-22.378093,-63.357952,17.633129
1784931445.1549,15:17:25.154,24,false,0.392641,-0.442627,0.476013,0.650635,0.939101,-0.271244,-0.140017,-22.443175,-63.422401,17.739046
1784931445.186,15:17:25.186,25,false,0.392364,-0.442993,0.476318,0.65033,0.945937,-0.26392,-0.142947,-22.501749,-63.61499,17.729695
1784931445.2171,15:17:25.217,26,false,0.392305,-0.443176,0.476196,0.65033,0.943984,-0.257572,-0.13904,-22.674097,-63.534104,17.796048
1784931445.2483,15:17:25.248,27,false,0.391418,-0.443909,0.475159,0.651123,0.951308,-0.270756,-0.158083,-22.574994,-63.521122,17.766042
1784931445.2794,15:17:25.279,28,false,0.390842,-0.44397,0.474487,0.651917,0.948379,-0.288334,-0.161501,-22.485802,-63.404762,17.798853
1784931445.3107,15:17:25.310,29,false,0.389755,-0.444214,0.473389,0.653198,0.95668,-0.287358,-0.175174,-22.45039,-63.329945,17.798475
1784931445.3421,15:17:25.342,30,false,0.388573,-0.445618,0.471436,0.654358,0.961074,-0.255131,-0.167849,-22.523196,-63.486918,17.798135
1784931445.3734,15:17:25.373,31,false,0.387971,-0.446777,0.470154,0.654846,0.974746,-0.176516,-0.161013,-22.364415,-63.478655,17.902505
1784931445.4048,15:17:25.404,0,false,0.382622,-0.452881,0.463623,0.658447,0.965957,-0.19263,-0.180056,-22.371049,-63.501126,17.891762
1784931445.4361,15:17:25.436,1,false,0.375893,-0.458801,0.456909,0.662903,0.977676,-0.157961,-0.181033,-22.362067,-63.356858,17.79237
1784931445.4672,15:17:25.467,2,false,0.360175,-0.47113,0.443542,0.671997,0.945937,-0.185306,-0.19324,-22.398844,-63.301785,17.628148
1784931445.4984,15:17:25.498,3,false,0.346567,-0.48053,0.432922,0.679382,0.949355,-0.217533,-0.21033,-22.461851,-63.102682,17.525209
1784931445.5295,15:17:25.529,4,false,0.331375,-0.490234,0.421753,0.687012,0.957656,-0.256596,-0.199588,-22.413881,-62.818812,17.283026
1784931445.5607,15:17:25.560,5,false,0.307548,-0.504944,0.405823,0.69696,0.945937,-0.302495,-0.198611,-22.595015,-62.533421,17.169739
1784931445.5918,15:17:25.591,6,false,0.292109,-0.514404,0.395752,0.702454,0.938613,-0.302007,-0.199588,-22.653359,-62.321431,17.157503
1784931445.6229,15:17:25.622,7,false,0.277054,-0.523804,0.385864,0.707092,0.963027,-0.265385,-0.166384,-22.75073,-61.921286,17.011906
1784931445.6541,15:17:25.654,8,false,0.254136,-0.53833,0.369385,0.713562,0.941543,-0.253178,-0.155154,-22.898179,-61.426571,16.641607
1784931445.6854,15:17:25.685,9,false,0.238697,-0.547791,0.3573,0.717834,0.949844,-0.230716,-0.158572,-23.01593,-61.041143,16.442923
1784931445.7168,15:17:25.716,10,false,0.213361,-0.562805,0.335266,0.724792,0.979141,-0.158938,-0.160037,-23.06209,-60.559673,16.234199
1784931445.7481,15:17:25.748,11,false,0.203646,-0.567871,0.326843,0.727478,0.936172,-0.225345,-0.182498,-23.238219,-60.186165,15.851948
1784931445.7794,15:17:25.779,12,false,0.172997,-0.581665,0.301208,0.735535,0.945937,-0.252201,-0.181033,-23.411688,-59.535978,15.642507
1784931445.8108,15:17:25.810,13,false,0.151837,-0.590271,0.283386,0.740417,0.964004,-0.26392,-0.183474,-23.552857,-58.935855,15.424102
1784931445.8421,15:17:25.842,14,false,0.120165,-0.602905,0.256287,0.745911,0.946426,-0.289799,-0.180056,-23.724771,-58.231253,15.257445
1784931445.8735,15:17:25.873,15,false,0.100601,-0.610291,0.23938,0.748413,0.935683,-0.314702,-0.163943,-23.864539,-57.537295,15.017731
1784931445.9046,15:17:25.904,16,false,0.083001,-0.616394,0.224487,0.750183,0.925917,-0.346929,-0.15613,-24.080053,-56.82301,14.891711
1784931445.9357,15:17:25.935,17,false,0.062319,-0.623169,0.206665,0.751709,0.962051,-0.334234,-0.131716,-24.244109,-55.955846,14.808201
1784931445.9669,15:17:25.966,18,false,0.051607,-0.626831,0.197449,0.751953,0.955215,-0.313237,-0.123903,-24.451574,-55.115583,14.747996
1784931445.998,15:17:25.998,19,false,0.043553,-0.630066,0.189636,0.75177,0.959121,-0.28101,-0.123415,-24.593431,-54.254669,14.903165
1784931446.0292,15:17:26.029,20,false,0.033566,-0.633789,0.180237,0.751465,0.957656,-0.262943,-0.116091,-24.646333,-53.405078,14.803556
1784931446.0605,15:17:26.060,21,false,0.028291,-0.635681,0.175171,0.751282,0.948379,-0.240482,-0.112673,-24.843484,-52.864753,14.788677
1784931446.0918,15:17:26.091,22,false,0.024255,-0.638428,0.167175,0.750916,0.946426,-0.227787,-0.119509,-25.230273,-52.094338,14.820147
1784931446.1232,15:17:26.123,23,false,0.019077,-0.639771,0.161804,0.751099,0.942519,-0.225834,-0.109743,-25.593337,-51.610318,14.908286
1784931446.1545,15:17:26.154,24,false,0.017197,-0.640381,0.158142,0.751404,0.959609,-0.226322,-0.116091,-25.66588,-51.025162,14.942749
1784931446.1858,15:17:26.185,25,false,0.014362,-0.641235,0.153442,0.751709,0.974258,-0.227298,-0.125856,-25.850798,-50.558337,14.884043
1784931446.217,15:17:26.217,26,false,0.009915,-0.641785,0.150269,0.751953,0.960098,-0.224857,-0.12488,-25.987318,-49.883978,14.8013
1784931446.2481,15:17:26.248,27,false,0.007073,-0.641968,0.146545,0.752563,0.972793,-0.225345,-0.140505,-26.110185,-49.351825,14.906277
1784931446.2793,15:17:26.279,28,false,0.003546,-0.64209,0.145508,0.752686,0.980606,-0.227787,-0.138552,-26.101135,-48.798118,14.89608
1784931446.3106,15:17:26.310,29,false,0.0,-0.642883,0.14209,0.752686,0.976211,-0.203861,-0.138552,-26.167759,-48.254921,14.812133
1784931446.3417,15:17:26.341,30,false,0.005323,0.643494,-0.139771,-0.752563,0.969863,-0.205814,-0.121462,-26.332398,-47.751089,14.856211
1784931446.3729,15:17:26.372,31,false,0.0,0.644287,-0.136597,-0.752502,0.964981,-0.197513,-0.119997,-26.480572,-47.327548,14.940743
1784931446.404,15:17:26.404,0,false,0.006307,0.644531,-0.134521,-0.752625,0.963516,-0.198978,-0.120974,-26.688699,-47.065991,14.971961
1784931446.4352,15:17:26.435,1,false,0.010243,0.64447,-0.132507,-0.752991,0.968887,-0.201419,-0.120974,-26.756382,-46.681053,15.044918
1784931446.4665,15:17:26.466,2,false,0.013145,0.644226,-0.129944,-0.753601,0.969863,-0.204837,-0.137575,-26.817297,-46.364515,15.140487
1784931446.4978,15:17:26.497,3,false,0.013122,0.644104,-0.128418,-0.753967,0.97084,-0.197513,-0.140017,-26.87212,-46.079631,15.15173
1784931446.5292,15:17:26.529,4,false,0.012648,0.644226,-0.126404,-0.754211,0.975723,-0.207279,-0.149783,-26.831738,-45.883052,15.221665
1784931446.5605,15:17:26.560,5,false,0.016359,0.644592,-0.123718,-0.754272,0.972305,-0.194583,-0.135622,-26.900071,-45.676222,15.284605
1784931446.5917,15:17:26.591,6,false,0.015465,0.645081,-0.121643,-0.754211,0.961074,-0.197513,-0.137087,-26.886802,-45.445214,15.341252
1784931446.6228,15:17:26.622,7,false,0.018507,0.645325,-0.119141,-0.754333,0.969863,-0.19263,-0.131716,-26.859905,-45.297122,15.227742
1784931446.6539,15:17:26.653,8,false,0.019887,0.645325,-0.11853,-0.754395,0.980606,-0.221439,-0.13904,-26.850652,-45.223654,15.080721
1784931446.6851,15:17:26.685,9,false,0.02321,0.645386,-0.117981,-0.754333,0.972305,-0.20972,-0.142947,-26.842325,-45.082764,15.187664
1784931446.7162,15:17:26.716,10,false,0.023799,0.645447,-0.11792,-0.754272,0.979141,-0.205814,-0.13904,-26.864738,-45.000825,15.298866
1784931446.7474,15:17:26.747,11,false,0.025661,0.645447,-0.11792,-0.754211,0.964981,-0.216068,-0.127321,-26.989586,-44.971941,15.369041
1784931446.7785,15:17:26.778,12,false,0.025962,0.645203,-0.118408,-0.754333,0.95082,-0.201907,-0.120485,-27.176719,-44.871176,15.327521
1784931446.8098,15:17:26.809,13,false,0.025135,0.645142,-0.11853,-0.754395,0.978164,-0.221439,-0.150759,-27.1956,-44.735627,15.39483
1784931446.8412,15:17:26.841,14,false,0.026497,0.644775,-0.119446,-0.754517,0.96791,-0.227298,-0.135134,-27.197639,-44.598678,15.261008
1784931446.8725,15:17:26.872,15,false,0.025005,0.644653,-0.120422,-0.754517,0.956191,-0.220462,-0.126833,-27.124705,-44.475424,15.215337
1784931446.9039,15:17:26.903,16,false,0.023907,0.644348,-0.121887,-0.754578,0.960586,-0.212161,-0.130739,-26.999249,-44.603757,15.114418
1784931446.9352,15:17:26.935,17,false,0.023917,0.644104,-0.123169,-0.754578,0.957168,-0.205325,-0.140017,-26.946154,-44.599626,15.083407
1784931446.9665,15:17:26.966,18,false,0.023959,0.643677,-0.124268,-0.754761,0.963516,-0.217044,-0.142947,-27.003046,-44.655724,14.95082
1784931446.9979,15:17:26.997,19,false,0.023475,0.642944,-0.125549,-0.755188,0.964492,-0.208743,-0.132692,-27.02434,-44.571627,14.861399
1784931447.029,15:17:27.029,20,false,0.023092,0.642456,-0.126282,-0.755493,0.975723,-0.214115,-0.144411,-26.953782,-44.585663,14.840735
1784931447.0601,15:17:27.060,21,false,0.023685,0.641907,-0.127136,-0.755798,0.964492,-0.220462,-0.158083,-26.980003,-44.643157,14.732415
1784931447.0913,15:17:27.091,22,false,0.022601,0.641052,-0.129089,-0.756226,0.972305,-0.226322,-0.153201,-27.078371,-44.739763,14.799419
1784931447.1224,15:17:27.122,23,false,0.021506,0.640808,-0.130127,-0.756287,0.968399,-0.225834,-0.149783,-27.047272,-44.751939,14.799908
1784931447.1538,15:17:27.153,24,false,0.021962,0.640625,-0.131653,-0.756165,0.973281,-0.23267,-0.145388,-27.019282,-44.792805,14.755486
1784931447.1849,15:17:27.184,25,false,0.021493,0.640625,-0.13208,-0.756104,0.974746,-0.242435,-0.1449,-27.068861,-44.695,14.790275
1784931447.2162,15:17:27.216,26,false,0.019825,0.640625,-0.133728,-0.755859,0.958633,-0.239506,-0.133669,-26.963943,-44.786422,14.716909
1784931447.2476,15:17:27.247,27,false,0.020611,0.640442,-0.134827,-0.755798,0.945937,-0.24097,-0.149783,-26.989148,-44.898609,14.680787
1784931447.2789,15:17:27.278,28,false,0.018153,0.639893,-0.137085,-0.75592,0.961074,-0.238529,-0.140505,-27.086601,-45.044439,14.648277
1784931447.3103,15:17:27.310,29,false,0.018277,0.639526,-0.139099,-0.755859,0.955215,-0.239994,-0.143923,-27.129448,-45.205594,14.484433
1784931447.3416,15:17:27.341,30,false,0.017017,0.63916,-0.14093,-0.755859,0.949844,-0.230228,-0.133181,-27.153056,-45.38054,14.426697
1784931447.3727,15:17:27.372,31,false,0.014917,0.638367,-0.143433,-0.756104,0.978164,-0.22388,-0.141482,-27.219165,-45.5679,14.329873
1784931447.4039,15:17:27.403,0,false,0.011509,0.637878,-0.145264,-0.756226,0.963027,-0.22974,-0.145388,-27.084263,-45.631847,14.287593
1784931447.435,15:17:27.435,1,false,0.010466,0.63739,-0.147156,-0.756287,0.953262,-0.224857,-0.143923,-27.037621,-45.6894,14.32431
1784931447.4662,15:17:27.466,2,false,0.007589,0.636414,-0.149963,-0.756592,0.947402,-0.220462,-0.147341,-26.861058,-45.711289,14.222771
1784931447.4973,15:17:27.497,3,false,0.0,0.635803,-0.151917,-0.756775,0.966445,-0.239506,-0.153689,-26.77692,-45.775851,14.176247
1784931447.5284,15:17:27.528,4,false,0.003992,0.635193,-0.153992,-0.756836,0.964492,-0.238041,-0.15613,-26.910551,-45.84891,14.104468
1784931447.5598,15:17:27.559,5,false,0.007947,0.634827,-0.15564,-0.756775,0.972793,-0.225345,-0.146853,-26.926141,-46.064203,14.084729
1784931447.5911,15:17:27.591,6,false,0.003978,0.63446,-0.156982,-0.756836,0.961563,-0.241459,-0.157107,-26.835495,-46.243012,14.052009
1784931447.6225,15:17:27.622,7,false,0.0,0.634155,-0.15863,-0.756775,0.972305,-0.243412,-0.140993,-26.753914,-46.359078,14.127239
1784931447.6538,15:17:27.653,8,false,0.0,-0.633911,0.159851,0.756714,0.948379,-0.24097,-0.145876,-26.63563,-46.478492,14.000545
1784931447.6851,15:17:27.685,9,false,0.0,-0.633667,0.161194,0.756653,0.963516,-0.237552,-0.14197,-26.424497,-46.316795,13.931383
1784931447.7165,15:17:27.716,10,false,0.0,-0.633606,0.161377,0.756653,0.961074,-0.239017,-0.146365,-26.384015,-46.350714,13.794367
1784931447.7478,15:17:27.747,11,false,0.0,-0.63324,0.162476,0.756714,0.959121,-0.23267,-0.152712,-26.317675,-46.381241,13.671053
1784931447.7792,15:17:27.779,12,false,0.004644,-0.633118,0.163147,0.756653,0.954726,-0.241947,-0.140017,-26.347691,-46.438623,13.694655
1784931447.8103,15:17:27.810,13,false,0.0,-0.632751,0.164673,0.756653,0.965469,-0.251713,-0.152224,-26.344798,-46.594944,13.671035
1784931447.8414,15:17:27.841,14,false,0.001707,-0.632507,0.165833,0.756592,0.95082,-0.236576,-0.144411,-26.312287,-46.795448,13.679685
1784931447.8726,15:17:27.872,15,false,0.0,-0.632324,0.16687,0.756531,0.97084,-0.238041,-0.149294,-26.283026,-46.975902,13.68747
1784931447.9037,15:17:27.903,16,false,0.005517,-0.632019,0.168152,0.75647,0.961563,-0.238041,-0.135622,-26.301554,-47.018679,13.694476
1784931447.9348,15:17:27.934,17,false,0.0055,-0.631775,0.169067,0.75647,0.969375,-0.239994,-0.140017,-26.228505,-47.266533,13.715736
1784931447.9662,15:17:27.966,18,false,0.009527,-0.631653,0.169617,0.756409,0.95668,-0.227298,-0.142947,-26.192669,-47.36997,13.690008
1784931447.9975,15:17:27.997,19,false,0.00693,-0.631287,0.170288,0.756592,0.95668,-0.241459,-0.147829,-26.235186,-47.433157,13.666853
1784931448.0289,15:17:28.028,20,false,0.003259,-0.630859,0.172241,0.756531,0.964004,-0.263432,-0.138552,-26.258497,-47.684424,13.675921
1784931448.0602,15:17:28.060,21,false,0.009239,-0.6297,0.174377,0.756958,0.946426,-0.254643,-0.139528,-26.204708,-47.731118,13.429867
1784931448.0915,15:17:28.091,22,false,0.003636,-0.629333,0.17511,0.757141,0.956191,-0.26685,-0.15613,-26.290883,-47.788097,13.372911
1784931448.1229,15:17:28.122,23,false,0.009348,-0.628296,0.177551,0.757385,0.958145,-0.274662,-0.163455,-26.233855,-47.869286,13.366512
1784931448.154,15:17:28.154,24,false,0.00865,-0.627869,0.178833,0.757446,0.966445,-0.275639,-0.166873,-26.212438,-48.002171,13.256075
1784931448.1852,15:17:28.185,25,false,0.012104,-0.627136,0.18042,0.757629,0.95375,-0.264408,-0.151736,-26.193163,-48.121768,13.26136
1784931448.2163,15:17:28.216,26,false,0.011736,-0.62677,0.181458,0.75769,0.960586,-0.26685,-0.15613,-26.086092,-48.259313,13.28107
1784931448.2474,15:17:28.247,27,false,0.013776,-0.626587,0.181946,0.75769,0.948867,-0.254154,-0.148806,-25.989728,-48.338242,13.298808
1784931448.2786,15:17:28.278,28,false,0.012303,-0.626099,0.183472,0.757751,0.962051,-0.257572,-0.152712,-26.037585,-48.543862,13.299819
1784931448.3097,15:17:28.309,29,false,0.011676,-0.625916,0.184387,0.75769,0.94789,-0.252201,-0.133669,-25.990934,-48.594336,13.315683
1784931448.3411,15:17:28.341,30,false,0.014962,-0.625427,0.185303,0.757813,0.951308,-0.259525,-0.148806,-25.948947,-48.564993,13.300053
1784931448.3724,15:17:28.372,31,false,0.015208,-0.625,0.185974,0.757996,0.95375,-0.253178,-0.145388,-25.83639,-48.688123,13.285986
1784931448.4037,15:17:28.403,0,false,0.012377,-0.624695,0.186462,0.758179,0.960098,-0.258549,-0.145876,-25.914535,-48.619494,13.303233
1784931448.4351,15:17:28.435,1,false,0.016907,-0.624329,0.18634,0.758423,0.947402,-0.267338,-0.157595,-25.969911,-48.72222,13.199125
1784931448.4662,15:17:28.466,2,false,0.013565,-0.624023,0.18689,0.758606,0.954238,-0.274662,-0.154665,-25.944981,-48.844581,13.314781
1784931448.4976,15:17:28.497,3,false,0.01455,-0.623596,0.187744,0.758728,0.946426,-0.281987,-0.149294,-25.982359,-48.984613,13.299241
1784931448.5287,15:17:28.528,4,false,0.015183,-0.62323,0.188416,0.75885,0.95082,-0.267338,-0.16199,-25.956184,-49.080735,13.270301
1784931448.5598,15:17:28.559,5,false,0.015825,-0.623047,0.188477,0.758972,0.948379,-0.266361,-0.154177,-25.842903,-49.077522,13.18444
1784931448.591,15:17:28.591,6,false,0.014577,-0.622742,0.18811,0.759338,0.95082,-0.270756,-0.159548,-25.770858,-49.224168,13.002488
1784931448.6221,15:17:28.622,7,false,0.017169,-0.62262,0.188049,0.759399,0.962051,-0.287846,-0.167361,-25.67611,-49.326242,13.092946
1784931448.6532,15:17:28.653,8,false,0.015001,-0.62262,0.187988,0.75946,0.951797,-0.273686,-0.160525,-25.605791,-49.433062,13.114543
1784931448.6844,15:17:28.684,9,false,0.016269,-0.622681,0.187927,0.759399,0.949355,-0.269291,-0.155154,-25.482688,-49.514247,13.223704
1784931448.7157,15:17:28.715,10,false,0.014289,-0.62262,0.188782,0.759277,0.943984,-0.271244,-0.154665,-25.446664,-49.587313,13.36681
1784931448.7471,15:17:28.747,11,false,0.014304,-0.62262,0.189026,0.759216,0.957168,-0.266361,-0.15906,-25.32452,-49.697934,13.361021
1784931448.7784,15:17:28.778,12,false,0.014886,-0.622681,0.18927,0.759094,0.954238,-0.258549,-0.161013,-25.423944,-49.812446,13.266088
1784931448.8097,15:17:28.809,13,false,0.015324,-0.622559,0.189636,0.759094,0.961074,-0.268315,-0.154665,-25.438657,-49.780923,13.360094
1784931448.8409,15:17:28.840,14,false,0.016257,-0.622498,0.190247,0.758972,0.97377,-0.252201,-0.153689,-25.481806,-49.827322,13.310115
1784931448.8722,15:17:28.872,15,false,0.016216,-0.622498,0.190979,0.758789,0.941054,-0.26392,-0.153689,-25.415963,-49.898988,13.295041
1784931448.9036,15:17:28.903,16,false,0.015832,-0.622375,0.19165,0.758728,0.945937,-0.261967,-0.149294,-25.401566,-49.903672,13.266521
1784931448.9347,15:17:28.934,17,false,0.017606,-0.622253,0.19165,0.758789,0.944472,-0.258549,-0.147341,-25.448424,-49.937796,13.255807
1784931448.9658,15:17:28.965,18,false,0.015204,-0.621399,0.192932,0.759216,0.962539,-0.272709,-0.151247,-25.43078,-49.983461,13.081672
1784931448.997,15:17:28.997,19,false,0.016413,-0.620667,0.194702,0.759338,0.953262,-0.275639,-0.158083,-25.519579,-49.934836,13.119351
1784931449.0281,15:17:29.028,20,false,0.015553,-0.619995,0.196899,0.759338,0.938613,-0.255619,-0.148318,-25.449958,-49.995751,13.123354
1784931449.0593,15:17:29.059,21,false,0.017488,-0.618713,0.2005,0.759399,0.944472,-0.23267,-0.156619,-25.462069,-50.125344,13.201726
1784931449.0906,15:17:29.090,22,false,0.019199,-0.617981,0.201904,0.759583,0.952285,-0.21265,-0.138064,-25.3982,-50.197115,13.197491
1784931449.1219,15:17:29.121,23,false,0.01547,-0.616943,0.201721,0.760559,0.928847,-0.225345,-0.134157,-25.415487,-50.231802,13.19368
1784931449.1533,15:17:29.153,24,false,0.014282,-0.616394,0.201416,0.761108,0.946426,-0.252201,-0.153201,-25.520768,-50.352743,12.99585
1784931449.1846,15:17:29.184,25,false,0.0,-0.614014,0.200256,0.763489,0.943984,-0.304936,-0.175174,-25.421121,-50.431683,12.997249
1784931449.216,15:17:29.216,26,false,0.00558,0.612488,-0.198242,-0.765198,0.928359,-0.324468,-0.182498,-25.286578,-50.442913,12.938693
1784931449.2473,15:17:29.247,27,false,0.008878,0.611023,-0.195068,-0.767151,0.966934,-0.357671,-0.191287,-25.240258,-50.527789,12.856085
1784931449.2786,15:17:29.278,28,false,0.012036,0.611206,-0.193115,-0.767456,0.951308,-0.376226,-0.203006,-25.1238,-50.604178,12.856507
1784931449.3098,15:17:29.309,29,false,0.015261,0.611633,-0.192017,-0.767334,0.942519,-0.366949,-0.195682,-25.273204,-50.852374,12.707348
1784931449.3409,15:17:29.340,30,false,0.018896,0.612488,-0.192139,-0.766541,0.936172,-0.343999,-0.17322,-25.18336,-50.821535,12.752551
1784931449.3721,15:17:29.372,31,false,0.017329,0.61322,-0.192627,-0.765869,0.945449,-0.327398,-0.170779,-25.162315,-50.808734,12.673604
1784931449.4034,15:17:29.403,0,false,0.017656,0.613953,-0.192932,-0.765198,0.921523,-0.308354,-0.161501,-25.128422,-50.886936,12.692274
1784931449.4345,15:17:29.434,1,false,0.018611,0.614685,-0.192688,-0.764648,0.911269,-0.309819,-0.170779,-25.142779,-51.017133,12.619354
1784931449.4659,15:17:29.465,2,false,0.018593,0.61499,-0.1922,-0.764526,0.942031,-0.325933,-0.168338,-25.065977,-50.895049,12.568679
1784931449.4972,15:17:29.497,3,false,0.018903,0.615417,-0.191772,-0.764282,0.915175,-0.327398,-0.161501,-25.041717,-50.934711,12.523073
1784931449.5285,15:17:29.528,4,false,0.020103,0.615417,-0.19165,-0.764282,0.913222,-0.334234,-0.168338,-25.199329,-50.925546,12.616611
1784931449.5599,15:17:29.559,5,false,0.020806,0.615356,-0.191284,-0.764404,0.943496,-0.346929,-0.180545,-25.086965,-50.992067,12.566211
1784931449.5912,15:17:29.591,6,false,0.020599,0.615173,-0.191895,-0.764404,0.946426,-0.36939,-0.185428,-25.210144,-51.096797,12.550759
1784931449.6224,15:17:29.622,7,false,0.020406,0.615234,-0.192932,-0.764099,0.948379,-0.351812,-0.18201,-25.096698,-51.191054,12.462083
1784931449.6535,15:17:29.653,8,false,0.016341,0.615479,-0.194946,-0.763489,0.915175,-0.333257,-0.167361,-24.964689,-51.365609,12.516859
1784931449.6846,15:17:29.684,9,false,0.017352,0.615601,-0.19519,-0.763306,0.951308,-0.318608,-0.181521,-24.965512,-51.343262,12.596065
1784931449.7158,15:17:29.715,10,false,0.012656,0.616821,-0.193359,-0.762878,0.927871,-0.302007,-0.159548,-24.921391,-51.472688,12.532765
1784931449.7469,15:17:29.746,11,false,0.012336,0.617737,-0.192139,-0.762451,0.915175,-0.271244,-0.16492,-24.911589,-51.484494,12.625335
1784931449.7781,15:17:29.778,12,false,0.011671,0.619324,-0.1875,-0.762329,0.954238,-0.24683,-0.165896,-24.992491,-51.450259,12.559108
1784931449.8094,15:17:29.809,13,false,0.01038,0.620239,-0.184021,-0.762451,0.929335,-0.297612,-0.16492,-24.990533,-51.225047,12.499505
1784931449.8407,15:17:29.840,14,false,0.011659,0.62085,-0.180847,-0.762695,0.952285,-0.309819,-0.17322,-25.048587,-51.261617,12.535585
1784931449.8721,15:17:29.872,15,false,0.010317,0.622314,-0.17688,-0.762451,0.957656,-0.294682,-0.161013,-25.055974,-51.040315,12.627872
1784931449.9034,15:17:29.903,16,false,0.013981,0.623535,-0.174683,-0.761902,0.955215,-0.283452,-0.157107,-25.122437,-50.930867,12.621208
1784931449.9348,15:17:29.934,17,false,0.015014,0.624634,-0.172791,-0.761414,0.942031,-0.313725,-0.15613,-25.092531,-50.892179,12.675025
1784931449.9659,15:17:29.965,18,false,0.017014,0.625916,-0.171997,-0.760498,0.944472,-0.314702,-0.157595,-25.140385,-50.78259,12.72346
1784931449.997,15:17:29.997,19,false,0.016532,0.626831,-0.172485,-0.759644,0.951797,-0.314702,-0.157107,-25.183453,-50.654053,12.767052
1784931450.0282,15:17:30.028,20,false,0.012815,0.628357,-0.173157,-0.758301,0.932265,-0.280522,-0.133181,-25.222215,-50.4636,12.776378
1784931450.0593,15:17:30.059,21,false,0.014808,0.628784,-0.173584,-0.757813,0.928847,-0.270268,-0.118044,-25.227193,-50.411823,12.799724
1784931450.0905,15:17:30.090,22,false,0.012703,0.628784,-0.176392,-0.757202,0.936172,-0.256107,-0.130739,-25.26158,-50.395131,12.865597
1784931450.1216,15:17:30.121,23,false,0.009195,0.628052,-0.178162,-0.757446,0.946426,-0.254643,-0.133181,-25.367298,-50.335247,12.820206
1784931450.1527,15:17:30.152,24,false,0.008339,0.625488,-0.182495,-0.758545,0.926894,-0.289799,-0.144411,-25.477398,-50.371075,12.83917
1784931450.1839,15:17:30.183,25,false,0.010157,0.623047,-0.186646,-0.759521,0.924941,-0.300053,-0.158083,-25.576488,-50.52295,12.886145
1784931450.2152,15:17:30.215,26,false,0.0,-0.620728,0.190735,0.760498,0.979141,-0.286381,-0.172244,-25.531085,-50.495146,12.913468
1784931450.2466,15:17:30.246,27,false,0.0,-0.618164,0.19696,0.760986,0.968399,-0.324468,-0.166873,-25.505176,-50.440214,12.923106
1784931450.2779,15:17:30.277,28,false,0.008045,-0.616699,0.202209,0.760742,0.947402,-0.329351,-0.169802,-25.511765,-50.420684,12.871964
1784931450.3092,15:17:30.309,29,false,0.014297,-0.615051,0.208618,0.760254,0.907851,-0.33814,-0.166873,-25.383111,-50.567598,12.885752
1784931450.3406,15:17:30.340,30,false,0.024226,-0.612366,0.219116,0.759216,0.963516,-0.340093,-0.163455,-25.267322,-50.774591,12.793484
1784931450.3719,15:17:30.371,31,false,0.031981,-0.610901,0.226318,0.757996,0.957168,-0.317144,-0.174197,-25.222928,-50.975838,12.979612
1784931450.403,15:17:30.403,0,false,0.042478,-0.608765,0.23645,0.756104,0.935195,-0.270756,-0.149783,-25.123157,-51.201821,12.937774
1784931450.4344,15:17:30.434,1,false,0.049752,-0.607971,0.240356,0.755066,0.91957,-0.238041,-0.14197,-25.01841,-51.240715,12.930027
1784931450.4655,15:17:30.465,2,false,0.056041,-0.607422,0.241699,0.754639,0.93373,-0.241947,-0.13611,-24.998907,-51.500026,12.952962
1784931450.4967,15:17:30.496,3,false,0.059734,-0.606079,0.241516,0.755493,0.93666,-0.251713,-0.151247,-25.071077,-51.74836,12.95865
1784931450.5278,15:17:30.527,4,false,0.060749,-0.604797,0.240845,0.756653,0.947402,-0.270268,-0.17615,-24.971537,-51.956907,12.948815
1784931450.5589,15:17:30.558,5,false,0.061711,-0.60376,0.238586,0.758118,0.973281,-0.275151,-0.192264,-24.822137,-52.084784,13.029687
1784931450.5903,15:17:30.590,6,false,0.060709,-0.603638,0.237793,0.758545,0.952773,-0.290776,-0.199588,-24.89703,-52.229781,12.93798
1784931450.6216,15:17:30.621,7,false,0.05991,-0.603333,0.23584,0.75946,0.915175,-0.33228,-0.178103,-24.829849,-52.270555,12.945166
1784931450.653,15:17:30.653,8,false,0.059073,-0.602051,0.236572,0.760315,0.940566,-0.349371,-0.188357,-24.844156,-52.367067,12.951634
1784931450.6843,15:17:30.684,9,false,0.059487,-0.600342,0.240967,0.760254,0.971328,-0.310307,-0.169314,-24.782263,-52.349251,12.957454
1784931450.7156,15:17:30.715,10,false,0.059133,-0.600281,0.244263,0.759277,0.944961,-0.322026,-0.158083,-24.816282,-52.467801,12.947739
1784931450.747,15:17:30.747,11,false,0.058283,-0.600952,0.246033,0.75824,0.942519,-0.333257,-0.155154,-24.757176,-52.544589,12.87918
1784931450.7783,15:17:30.778,12,false,0.05816,-0.602905,0.245605,0.756836,0.95082,-0.20972,-0.129763,-24.703981,-52.58379,12.892247
1784931450.8095,15:17:30.809,13,false,0.054815,-0.604919,0.241577,0.756775,0.939101,-0.237064,-0.138064,-24.536474,-52.768609,12.978775
1784931450.8406,15:17:30.840,14,false,0.05067,-0.606934,0.235046,0.757507,0.948867,-0.206302,-0.131716,-24.520303,-52.875131,12.996836
1784931450.8717,15:17:30.871,15,false,0.040903,-0.609863,0.221069,0.759949,0.950332,-0.179934,-0.158572,-24.445933,-52.911185,12.998136
1784931450.9029,15:17:30.902,16,false,0.031469,-0.611938,0.208984,0.762146,0.958145,-0.226322,-0.163455,-24.438816,-52.853911,13.014261
1784931450.934,15:17:30.934,17,false,0.013915,-0.615112,0.189514,0.765198,0.941543,-0.256596,-0.175174,-24.432411,-52.727596,12.998865
1784931450.9654,15:17:30.965,18,false,0.008983,-0.61615,0.182617,0.766113,0.960586,-0.250248,-0.17615,-24.4416,-52.419511,12.955101
1784931450.9967,15:17:30.996,19,false,0.007831,0.619263,-0.162292,-0.768188,0.89662,-0.311284,-0.203494,-24.44987,-52.142236,12.915714
1784931451.028,15:17:31.028,20,false,0.016289,0.620544,-0.151184,-0.769287,0.946914,-0.341558,-0.218143,-24.517128,-51.683334,12.835404
1784931451.0594,15:17:31.059,21,false,0.026943,0.622192,-0.138977,-0.769958,0.957656,-0.272221,-0.1991,-24.65243,-51.270322,12.763124
1784931451.0907,15:17:31.090,22,false,0.035488,0.625244,-0.126892,-0.769226,0.985977,-0.252689,-0.202518,-24.699432,-50.793934,12.80275
1784931451.1221,15:17:31.122,23,false,0.038404,0.626404,-0.12323,-0.768738,0.960586,-0.295171,-0.17908,-24.741734,-50.290416,12.688875
1784931451.1534,15:17:31.153,24,false,0.045719,0.6297,-0.114258,-0.767029,0.939101,-0.253666,-0.153689,-24.869529,-50.001742,12.646202
1784931451.1845,15:17:31.184,25,false,0.048302,0.632141,-0.109009,-0.765625,0.960098,-0.22681,-0.153201,-24.984545,-49.712028,12.607797
1784931451.2157,15:17:31.215,26,false,0.052203,0.635742,-0.102783,-0.763245,0.949844,-0.213138,-0.150759,-25.117966,-49.167163,12.692863
1784931451.2468,15:17:31.246,27,false,0.055969,0.637573,-0.099365,-0.761902,0.937636,-0.20679,-0.140505,-25.193184,-48.646876,12.709607
1784931451.2779,15:17:31.277,28,false,0.058234,0.638977,-0.09552,-0.761047,0.961563,-0.196048,-0.144411,-25.245927,-48.193571,12.8144
1784931451.3091,15:17:31.309,29,false,0.062633,0.640076,-0.090088,-0.760437,0.963516,-0.242924,-0.157595,-25.248533,-47.830459,12.908713
1784931451.3404,15:17:31.340,30,false,0.065324,0.64032,-0.086365,-0.760437,0.945449,-0.239506,-0.152712,-25.445279,-47.458796,12.993595
1784931451.3718,15:17:31.371,31,false,0.067232,0.640076,-0.083435,-0.760803,0.972305,-0.23267,-0.180545,-25.547581,-47.199069,13.025128
1784931451.4031,15:17:31.403,0,false,0.071518,0.639038,-0.079956,-0.761658,0.969375,-0.274662,-0.194705,-25.74433,-46.935407,12.94883
1784931451.4344,15:17:31.434,1,false,0.073738,0.637756,-0.078857,-0.762634,0.950332,-0.277592,-0.193729,-25.801773,-46.533619,13.044654
1784931451.4656,15:17:31.465,2,false,0.074916,0.635498,-0.078247,-0.764465,0.964492,-0.252201,-0.209354,-25.748795,-46.186963,13.041173
1784931451.4968,15:17:31.496,3,false,0.07478,0.634949,-0.078064,-0.764954,0.973281,-0.22974,-0.217166,-25.880561,-45.994604,13.023086
1784931451.528,15:17:31.528,4,false,0.072538,0.633972,-0.077942,-0.765991,0.984512,-0.207767,-0.212284,-25.894473,-45.70185,13.096531
1784931451.5591,15:17:31.559,5,false,0.071088,0.633484,-0.079041,-0.766418,0.963027,-0.218509,-0.209842,-26.026625,-45.647725,13.162631
1784931451.5902,15:17:31.590,6,false,0.06823,0.633423,-0.081421,-0.766479,0.94789,-0.23267,-0.193729,-26.130608,-45.479382,13.192214
1784931451.6214,15:17:31.621,7,false,0.065546,0.633911,-0.083252,-0.766113,0.957656,-0.194583,-0.169802,-26.029792,-45.357781,13.18893
1784931451.6525,15:17:31.652,8,false,0.060849,0.634644,-0.085693,-0.765625,0.960098,-0.205325,-0.15613,-26.013828,-45.397878,13.156068
1784931451.6837,15:17:31.683,9,false,0.055018,0.63501,-0.09314,-0.764893,0.951797,-0.233646,-0.167361,-26.074229,-45.404058,13.156399
1784931451.7148,15:17:31.714,10,false,0.048514,0.634766,-0.100159,-0.764648,0.942519,-0.210697,-0.16492,-25.994005,-45.379712,13.141743
1784931451.7461,15:17:31.746,11,false,0.042093,0.634644,-0.106873,-0.764221,0.972305,-0.216556,-0.174197,-25.876942,-45.342848,13.218276
1784931451.7775,15:17:31.777,12,false,0.032184,0.633789,-0.119446,-0.76355,0.95375,-0.251713,-0.180056,-25.965986,-45.474161,13.197433
1784931451.8088,15:17:31.808,13,false,0.024878,0.632446,-0.129089,-0.763367,0.965957,-0.220951,-0.18201,-26.001263,-45.652159,13.16372
1784931451.8402,15:17:31.840,14,false,0.015839,0.631226,-0.140991,-0.762512,0.964004,-0.192142,-0.181033,-25.883474,-45.887126,13.058609
1784931451.8713,15:17:31.871,15,false,0.012838,0.630371,-0.146973,-0.762146,0.958145,-0.172122,-0.175662,-25.882142,-46.128504,12.964009
1784931451.9024,15:17:31.902,16,false,0.001965,0.629944,-0.150574,-0.761902,0.96791,-0.217533,-0.169802,-25.880942,-46.315837,13.013454
1784931451.9336,15:17:31.933,17,false,0.005049,0.629395,-0.154297,-0.761597,0.935195,-0.227298,-0.159548,-25.894816,-46.57416,13.11777
1784931451.9647,15:17:31.964,18,false,0.0,-0.628967,0.155945,0.761658,0.965957,-0.219974,-0.157595,-25.907303,-46.776742,13.0023
1784931451.9959,15:17:31.995,19,false,0.0,-0.628357,0.157776,0.76178,0.943008,-0.201907,-0.158083,-25.99331,-46.959066,12.928285
1784931452.027,15:17:32.027,20,false,0.005261,-0.627991,0.158447,0.761902,0.958145,-0.221927,-0.171267,-25.980994,-47.16802,12.846718
1784931452.0581,15:17:32.058,21,false,0.009354,-0.627197,0.160217,0.762146,0.971817,-0.240482,-0.171267,-26.014771,-47.505616,12.907892
1784931452.0893,15:17:32.089,22,false,0.010315,-0.62677,0.162109,0.762085,0.952773,-0.22974,-0.166873,-25.910585,-47.674868,12.843318
1784931452.1206,15:17:32.120,23,false,0.01153,-0.625916,0.164734,0.762207,0.978653,-0.244877,-0.16199,-25.876633,-47.857103,12.874924
1784931452.1519,15:17:32.151,24,false,0.010432,-0.625366,0.166321,0.762329,0.963027,-0.261967,-0.142947,-25.7414,-47.931391,12.963185
1784931452.1833,15:17:32.183,25,false,0.012379,-0.624634,0.168091,0.762512,0.943984,-0.268803,-0.151736,-25.829044,-48.013204,12.908035
1784931452.2146,15:17:32.214,26,false,0.017526,-0.622559,0.171692,0.763306,0.960098,-0.251225,-0.161013,-25.758385,-48.191513,12.903262
1784931452.246,15:17:32.246,27,false,0.017955,-0.621643,0.174133,0.763489,0.964492,-0.235599,-0.169802,-25.709746,-48.187499,12.839151
1784931452.2773,15:17:32.277,28,false,0.020813,-0.620911,0.176941,0.763367,0.955703,-0.257572,-0.162478,-25.561293,-48.333424,12.886128
1784931452.3086,15:17:32.308,29,false,0.022713,-0.619507,0.181824,0.763306,0.960586,-0.274662,-0.161501,-25.532363,-48.36008,12.853638
1784931452.3398,15:17:32.339,30,false,0.026488,-0.618103,0.185791,0.763367,0.95375,-0.304936,-0.163943,-25.506326,-48.593425,12.794489
1784931452.3709,15:17:32.370,31,false,0.0352,-0.614807,0.194092,0.763611,0.946914,-0.308843,-0.18201,-25.557662,-48.803434,12.741255
1784931452.4021,15:17:32.402,0,false,0.037239,-0.613403,0.197876,0.763672,0.957168,-0.342535,-0.181521,-25.514141,-49.156935,12.708298
1784931452.4332,15:17:32.433,1,false,0.049645,-0.608826,0.210754,0.763184,0.925917,-0.293706,-0.185916,-25.280572,-49.265733,12.678637
1784931452.4643,15:17:32.464,2,false,0.060703,-0.605286,0.219849,0.762634,0.960098,-0.269291,-0.195682,-25.115222,-49.498235,12.726712
1784931452.4957,15:17:32.495,3,false,0.074893,-0.600525,0.233398,0.761108,0.981094,-0.200931,-0.196658,-25.086038,-49.901886,12.62044
1784931452.527,15:17:32.527,4,false,0.087065,-0.597717,0.243896,0.758728,0.964004,-0.191165,-0.182498,-25.029864,-50.17545,12.554703
1784931452.5584,15:17:32.558,5,false,0.09003,-0.597107,0.246765,0.757935,0.955215,-0.221927,-0.161501,-24.934446,-50.51138,12.68994
1784931452.5897,15:17:32.589,6,false,0.096899,-0.595459,0.254211,0.75592,0.937636,-0.247318,-0.157107,-24.923339,-50.843625,12.706977
1784931452.621,15:17:32.621,7,false,0.099566,-0.594238,0.258362,0.755127,0.946914,-0.24097,-0.146365,-24.868481,-51.217415,12.752217
1784931452.6524,15:17:32.652,8,false,0.103977,-0.592896,0.262878,0.754028,0.976699,-0.242435,-0.167361,-24.759294,-51.538872,12.852749
1784931452.6837,15:17:32.683,9,false,0.10544,-0.592407,0.265137,0.753418,0.964981,-0.281498,-0.16492,-24.735795,-51.85809,12.898366
1784931452.7149,15:17:32.714,10,false,0.106771,-0.591614,0.267578,0.752991,0.943984,-0.284428,-0.160037,-24.580061,-52.30988,12.849698
1784931452.746,15:17:32.746,11,false,0.108042,-0.590637,0.270752,0.752441,0.946914,-0.278569,-0.165408,-24.649254,-52.596859,12.865712
1784931452.7773,15:17:32.777,12,false,0.108154,-0.590332,0.272217,0.752136,0.946914,-0.296147,-0.160037,-24.561989,-52.885048,12.910033
1784931452.8085,15:17:32.808,13,false,0.107858,-0.590027,0.273499,0.751953,0.93666,-0.303471,-0.153689,-24.483451,-53.114511,12.949922
1784931452.8396,15:17:32.839,14,false,0.10732,-0.589905,0.274475,0.75177,0.961563,-0.294194,-0.163943,-24.607167,-53.425704,13.090498
1784931452.871,15:17:32.871,15,false,0.107111,-0.590515,0.274414,0.751343,0.966934,-0.277592,-0.162478,-24.568972,-53.526332,13.18711
1784931452.9023,15:17:32.902,16,false,0.105594,-0.592346,0.27356,0.750427,0.965469,-0.281987,-0.144411,-24.549551,-53.811297,13.214244
1784931452.9336,15:17:32.933,17,false,0.105352,-0.592896,0.273132,0.750183,0.940078,-0.302495,-0.132692,-24.547026,-54.097673,13.298481
1784931452.965,15:17:32.965,18,false,0.102388,-0.594604,0.271545,0.749817,0.93373,-0.287358,-0.133181,-24.499892,-54.220827,13.284571
1784931452.9963,15:17:32.996,19,false,0.099941,-0.595825,0.269775,0.749817,0.940566,-0.291264,-0.12781,-24.427564,-54.197081,13.361775
1784931453.0276,15:17:33.027,20,false,0.097015,-0.597717,0.266296,0.749939,0.931777,-0.258061,-0.13611,-24.512006,-54.295341,13.431259
1784931453.0588,15:17:33.058,21,false,0.094931,-0.598755,0.263672,0.750305,0.958633,-0.268315,-0.130739,-24.617913,-54.473497,13.47884
1784931453.0899,15:17:33.089,22,false,0.091382,-0.599854,0.260498,0.750977,0.94789,-0.252201,-0.132692,-24.653413,-54.544115,13.611386
1784931453.1211,15:17:33.121,23,false,0.086013,-0.600708,0.255554,0.752625,0.975235,-0.28101,-0.154177,-24.670409,-54.443179,13.640955
1784931453.1522,15:17:33.152,24,false,0.080548,-0.601379,0.25177,0.753967,0.96791,-0.305425,-0.154177,-24.790383,-54.307475,13.667567
1784931453.1833,15:17:33.183,25,false,0.075884,-0.602234,0.248596,0.754822,0.930312,-0.327886,-0.154177,-24.82359,-54.334879,13.541979
1784931453.2145,15:17:33.214,26,false,0.071709,-0.603455,0.244995,0.755432,0.906874,-0.33814,-0.158083,-24.838523,-54.195051,13.488765
1784931453.2458,15:17:33.245,27,false,0.071927,-0.604004,0.244141,0.755249,0.922499,-0.313237,-0.146365,-24.851962,-54.173883,13.440873
1784931453.2772,15:17:33.277,28,false,0.072026,-0.604919,0.243164,0.754822,0.964004,-0.259525,-0.156619,-24.849103,-54.035201,13.487493
1784931453.3085,15:17:33.308,29,false,0.072183,-0.605225,0.242737,0.7547,0.978164,-0.262943,-0.163455,-24.891392,-54.030017,13.394866
1784931453.3398,15:17:33.339,30,false,0.070682,-0.605835,0.241272,0.754822,0.982559,-0.279057,-0.166873,-24.989268,-53.905722,13.266641
1784931453.3712,15:17:33.371,31,false,0.068428,-0.606934,0.240112,0.754517,0.951308,-0.305913,-0.154177,-24.912863,-53.778902,13.196099
1784931453.4025,15:17:33.402,0,false,0.068357,-0.607727,0.240234,0.753845,0.938613,-0.293217,-0.149294,-24.844099,-53.84421,13.102704
1784931453.4339,15:17:33.433,1,false,0.069677,-0.608582,0.241516,0.752625,0.914687,-0.279545,-0.140993,-24.93175,-53.723541,13.168187
1784931453.465,15:17:33.465,2,false,0.070124,-0.608765,0.242065,0.752258,0.916152,-0.266361,-0.13904,-25.010636,-53.54017,13.152353
1784931453.4961,15:17:33.496,3,false,0.070746,-0.60907,0.244141,0.751282,0.952773,-0.288823,-0.137575,-25.006864,-53.58449,13.168009
1784931453.5273,15:17:33.527,4,false,0.071015,-0.609131,0.246155,0.750549,0.959609,-0.300542,-0.118532,-25.182915,-53.489793,13.047516
1784931453.5584,15:17:33.558,5,false,0.073444,-0.608276,0.251404,0.749268,0.977188,-0.339605,-0.139528,-25.1021,-53.598966,13.208241
1784931453.5896,15:17:33.589,6,false,0.076403,-0.607483,0.255676,0.748169,0.968399,-0.31519,-0.12488,-25.253673,-53.622452,13.308032
1784931453.6209,15:17:33.620,7,false,0.078853,-0.606567,0.259399,0.747375,0.955703,-0.296147,-0.123415,-25.210644,-53.613682,13.293166
1784931453.6522,15:17:33.652,8,false,0.082555,-0.60437,0.264038,0.747131,0.91957,-0.313237,-0.143923,-25.276594,-53.740374,13.309696
1784931453.6836,15:17:33.683,9,false,0.084751,-0.602539,0.267334,0.747192,0.940566,-0.318608,-0.138552,-25.350903,-53.839442,13.414295
1784931453.7149,15:17:33.714,10,false,0.087629,-0.601074,0.270874,0.746765,0.942031,-0.338628,-0.138064,-25.447689,-53.838881,13.418711
1784931453.7463,15:17:33.746,11,false,0.094817,-0.598328,0.278625,0.745239,0.935683,-0.37232,-0.147341,-25.460027,-53.913145,13.497455
1784931453.7774,15:17:33.777,12,false,0.102024,-0.595215,0.286865,0.743652,0.958145,-0.37525,-0.141482,-25.441223,-53.89026,13.583278
1784931453.8085,15:17:33.808,13,false,0.117082,-0.589417,0.304382,0.739075,0.968399,-0.344488,-0.149294,-25.334577,-53.959386,13.615658
1784931453.8397,15:17:33.839,14,false,0.122713,-0.587219,0.311218,0.737061,0.91957,-0.343023,-0.149783,-25.163826,-54.245907,13.599938
1784931453.8708,15:17:33.870,15,false,0.142403,-0.579468,0.333801,0.729736,0.948867,-0.324468,-0.133181,-25.144735,-54.668268,13.675513
1784931453.9019,15:17:33.901,16,false,0.157733,-0.574036,0.349731,0.723389,0.964981,-0.265385,-0.130739,-25.082692,-55.003532,13.788392
1784931453.9331,15:17:33.933,17,false,0.178268,-0.565491,0.375977,0.712097,0.958633,-0.330327,-0.14197,-24.952083,-55.454808,14.069429
1784931453.9642,15:17:33.964,18,false,0.198095,-0.557434,0.403198,0.698181,0.955215,-0.309819,-0.105837,-24.729859,-56.160033,14.501808
1784931453.9956,15:17:33.995,19,false,0.204337,-0.554993,0.411682,0.693359,0.91957,-0.271244,-0.037964,-24.739211,-56.884458,14.905904
1784931454.0269,15:17:34.026,20,false,0.221264,-0.548706,0.431946,0.680725,0.915175,-0.276127,0.012818,-24.64295,-57.476626,15.359313
1784931454.0582,15:17:34.058,21,false,0.230008,-0.545227,0.440979,0.674805,0.9308,-0.279545,0.011841,-24.631085,-58.084346,15.767381
1784931454.0896,15:17:34.089,22,false,0.239459,-0.539795,0.450256,0.669739,0.938125,-0.268315,0.014771,-24.665268,-58.676155,16.239319
1784931454.1207,15:17:34.120,23,false,0.243595,-0.536377,0.454102,0.668396,0.960586,-0.318608,-0.011597,-24.486679,-59.328415,16.783694
1784931454.1519,15:17:34.151,24,false,0.246309,-0.53363,0.457031,0.667603,0.955215,-0.323491,-0.01648,-24.340903,-60.005171,17.30354
1784931454.1832,15:17:34.183,25,false,0.248081,-0.531189,0.459534,0.667175,0.929824,-0.345464,0.001099,-24.119981,-60.674067,17.861123
1784931454.2143,15:17:34.214,26,false,0.24849,-0.529907,0.460083,0.667664,0.945937,-0.3523,-0.023316,-24.055736,-61.036812,18.333041
1784931454.2455,15:17:34.245,27,false,0.248085,-0.529236,0.459656,0.66864,0.944961,-0.35816,-0.026734,-24.012869,-61.453006,18.563367
1784931454.2766,15:17:34.276,28,false,0.247249,-0.528748,0.458801,0.669922,0.937636,-0.381598,-0.034546,-23.974289,-61.82758,18.740753
1784931454.3078,15:17:34.307,29,false,0.247388,-0.528503,0.45874,0.670105,0.91957,-0.366949,-0.022339,-23.924614,-62.299282,18.990123
1784931454.3389,15:17:34.338,30,false,0.248581,-0.527771,0.459473,0.669739,0.942519,-0.360113,-0.023316,-23.849998,-62.484552,19.124833
1784931454.37,15:17:34.370,31,false,0.248509,-0.527588,0.4599,0.669617,0.935195,-0.342535,-0.018433,-23.962289,-62.696156,19.290934
1784931454.4014,15:17:34.401,0,false,0.248382,-0.526367,0.461365,0.669617,0.944472,-0.384527,-0.029664,-23.928767,-63.021184,19.50024
1784931454.4327,15:17:34.432,1,false,0.248653,-0.525269,0.462646,0.669495,0.943496,-0.377203,-0.042359,-23.943459,-63.31371,19.763384
1784931454.4641,15:17:34.464,2,false,0.249484,-0.524292,0.464539,0.66864,0.940078,-0.356695,-0.03064,-23.792189,-63.352675,19.955353
1784931454.4954,15:17:34.495,3,false,0.249775,-0.524475,0.464966,0.668091,0.921035,-0.352789,-0.01355,-23.775677,-63.537283,20.023448
1784931454.5265,15:17:34.526,4,false,0.250453,-0.524658,0.465271,0.66748,0.922499,-0.35816,-0.018921,-23.745863,-63.763245,20.099687
1784931454.5577,15:17:34.557,5,false,0.251203,-0.524658,0.466003,0.666687,0.934218,-0.348882,-0.016968,-23.659214,-63.951657,20.302887
1784931454.5888,15:17:34.588,6,false,0.25157,-0.524048,0.467102,0.66626,0.919081,-0.344488,-0.008179,-23.670954,-64.061412,20.470813
1784931454.62,15:17:34.620,7,false,0.251017,-0.523254,0.468201,0.666321,0.912245,-0.382574,-0.022339,-23.591796,-64.220007,20.592039
1784931454.6511,15:17:34.651,8,false,0.251229,-0.521118,0.470032,0.666626,0.940078,-0.39527,-0.014527,-23.475693,-64.287974,20.671234
1784931454.6822,15:17:34.682,9,false,0.251526,-0.520203,0.470886,0.666626,0.935683,-0.391363,-0.015991,-23.401107,-64.394005,20.757464
1784931454.7134,15:17:34.713,10,false,0.253152,-0.519287,0.471802,0.666077,0.945937,-0.38941,-0.01355,-23.468565,-64.474479,20.850024
1784931454.7447,15:17:34.744,11,false,0.254204,-0.518799,0.47229,0.66571,0.925429,-0.394293,-0.006226,-23.4246,-64.531953,20.993144
1784931454.776,15:17:34.776,12,false,0.255724,-0.518433,0.472473,0.665283,0.926894,-0.39527,-0.021851,-23.370078,-64.643494,21.062137
1784931454.8074,15:17:34.807,13,false,0.258605,-0.518066,0.472595,0.664368,0.938613,-0.369879,-0.009644,-23.321008,-64.743881,21.198999
1784931454.8387,15:17:34.838,14,false,0.260719,-0.5177,0.472778,0.663696,0.929824,-0.355718,-0.018433,-23.33666,-64.849183,21.157683
1784931454.8701,15:17:34.870,15,false,0.263265,-0.517395,0.4729,0.662842,0.930312,-0.350835,-0.011597,-23.410563,-64.80937,21.284991
1784931454.9014,15:17:34.901,16,false,0.264108,-0.517334,0.472839,0.662598,0.93959,-0.352789,-0.024292,-23.521936,-64.863262,21.235076
1784931454.9325,15:17:34.932,17,false,0.266856,-0.517151,0.473206,0.661377,0.949844,-0.351324,-0.014527,-23.412819,-64.941672,21.279876
1784931454.9637,15:17:34.963,18,false,0.268201,-0.517212,0.473572,0.660522,0.934218,-0.342535,-0.022827,-23.344521,-64.982334,21.200564
1784931454.9948,15:17:34.994,19,false,0.270369,-0.517395,0.473755,0.659363,0.934218,-0.334722,-0.019409,-23.462499,-64.914252,21.30863
1784931455.026,15:17:35.026,20,false,0.272477,-0.5177,0.473572,0.658386,0.934707,-0.298589,-0.011109,-23.568679,-64.882886,21.375982
1784931455.0571,15:17:35.057,21,false,0.274215,-0.51825,0.4729,0.657715,0.91664,-0.305425,-0.01355,-23.634333,-64.82475,21.361829
1784931455.0882,15:17:35.088,22,false,0.277096,-0.518127,0.471863,0.657349,0.954726,-0.344976,-0.019409,-23.633607,-64.712611,21.438815
1784931455.1194,15:17:35.119,23,false,0.279531,-0.517639,0.471558,0.656921,0.960098,-0.325933,-0.007202,-23.632953,-64.611686,21.46324
1784931455.1507,15:17:35.150,24,false,0.281504,-0.517578,0.47113,0.656433,0.93373,-0.32398,-0.002319,-23.69218,-64.655439,21.365593
1784931455.1821,15:17:35.182,25,false,0.284221,-0.517456,0.470398,0.655884,0.95082,-0.326909,-0.023804,-23.760438,-64.605093,21.337525
1784931455.2134,15:17:35.213,26,false,0.2862,-0.517029,0.470093,0.655579,0.942519,-0.314214,-0.017945,-23.911594,-64.574735,21.327218
1784931455.2447,15:17:35.244,27,false,0.288009,-0.516479,0.469421,0.655701,0.944961,-0.307378,-0.023804,-23.928003,-64.457691,21.228219
1784931455.2761,15:17:35.276,28,false,0.288377,-0.516418,0.469177,0.655762,0.964981,-0.309331,-0.034058,-24.047448,-64.35235,21.273704
1784931455.3074,15:17:35.307,29,false,0.289329,-0.516052,0.468994,0.655762,0.94789,-0.322026,-0.037476,-24.095133,-64.272498,21.299687
1784931455.3388,15:17:35.338,30,false,0.289704,-0.515564,0.469299,0.655762,0.948867,-0.305425,-0.031617,-24.048327,-64.290354,21.308117
1784931455.3699,15:17:35.369,31,false,0.289691,-0.514771,0.470093,0.655823,0.947402,-0.328862,-0.032593,-24.170693,-64.216701,21.300751
1784931455.401,15:17:35.401,0,false,0.290278,-0.514282,0.47052,0.65564,0.944472,-0.320073,-0.027222,-24.101377,-64.195275,21.324029
1784931455.4322,15:17:35.432,1,false,0.290365,-0.514221,0.470703,0.655518,0.940078,-0.306401,-0.041871,-24.009085,-64.295622,21.255256
1784931455.4633,15:17:35.463,2,false,0.290745,-0.514038,0.471008,0.655273,0.964981,-0.305913,-0.028687,-24.120422,-64.311166,21.26813
1784931455.4945,15:17:35.494,3,false,0.289982,-0.514099,0.471497,0.655212,0.956191,-0.307378,-0.028199,-24.16081,-64.280293,21.29467
1784931455.5258,15:17:35.525,4,false,0.288337,-0.513916,0.472534,0.655334,0.938125,-0.337163,-0.020874,-24.122389,-64.282416,21.243787
1784931455.5571,15:17:35.557,5,false,0.287287,-0.513977,0.473022,0.655396,0.939101,-0.33228,-0.020874,-24.057904,-64.254418,21.272762
1784931455.5885,15:17:35.588,6,false,0.286473,-0.514038,0.47345,0.655396,0.938125,-0.342046,-0.02771,-23.955005,-64.289036,21.268931
1784931455.6198,15:17:35.619,7,false,0.285753,-0.513855,0.473999,0.655457,0.941543,-0.349859,-0.028687,-23.862396,-64.290284,21.474837
1784931455.6511,15:17:35.651,8,false,0.286169,-0.513428,0.474548,0.655212,0.946426,-0.345464,-0.01648,-23.913632,-64.4559,21.49566
1784931455.6825,15:17:35.682,9,false,0.28676,-0.513,0.475159,0.654846,0.926894,-0.342535,-0.020874,-24.019561,-64.47037,21.544309
1784931455.7138,15:17:35.713,10,false,0.288638,-0.511719,0.476746,0.65387,0.93373,-0.33814,-0.024292,-23.995265,-64.423577,21.69277
1784931455.745,15:17:35.745,11,false,0.289602,-0.511292,0.477539,0.653198,0.945449,-0.334722,-0.024292,-24.09303,-64.306694,21.676846
1784931455.7761,15:17:35.776,12,false,0.291563,-0.510254,0.47937,0.651794,0.945449,-0.33814,-0.029175,-24.240834,-64.395899,21.752238
1784931455.8072,15:17:35.807,13,false,0.291905,-0.51001,0.479919,0.651428,0.941054,-0.331304,-0.018433,-24.224319,-64.371507,21.715413
1784931455.8384,15:17:35.838,14,false,0.291974,-0.509521,0.48114,0.650879,0.946914,-0.334722,-0.011109,-24.329087,-64.469185,21.801902
1784931455.8695,15:17:35.869,15,false,0.291985,-0.509094,0.48175,0.650757,0.93373,-0.333745,-0.014038,-24.378516,-64.392603,22.014326
1784931455.9009,15:17:35.900,16,false,0.292062,-0.509277,0.481262,0.65094,0.938613,-0.337163,-0.018921,-24.303371,-64.473218,21.921385
1784931455.9322,15:17:35.932,17,false,0.292008,-0.509705,0.480347,0.651306,0.9308,-0.3523,-0.017456,-24.445095,-64.530817,21.777923
1784931455.9635,15:17:35.963,18,false,0.292034,-0.51001,0.479675,0.65155,0.948867,-0.326909,-0.026246,-24.453015,-64.537795,21.798345
1784931455.9949,15:17:35.994,19,false,0.291253,-0.510193,0.479126,0.652161,0.959121,-0.333745,-0.017456,-24.519959,-64.424444,21.727003
1784931456.0262,15:17:36.026,20,false,0.290257,-0.510193,0.479065,0.652649,0.955215,-0.343999,-0.021363,-24.296085,-64.307475,21.632886
1784931456.0576,15:17:36.057,21,false,0.289439,-0.510132,0.479126,0.653015,0.922011,-0.349859,-0.008179,-24.244138,-64.456418,21.548182
1784931456.0889,15:17:36.088,22,false,0.288542,-0.509216,0.479309,0.653992,0.94789,-0.340093,-0.011597,-24.2572,-64.425974,21.531763
1784931456.12,15:17:36.120,23,false,0.288532,-0.508667,0.479065,0.654602,0.946914,-0.349859,-0.008179,-24.313818,-64.57802,21.516986
1784931456.1512,15:17:36.151,24,false,0.288258,-0.507751,0.478699,0.655701,0.929824,-0.314702,-0.026734,-24.125512,-64.565324,21.354148
1784931456.1823,15:17:36.182,25,false,0.287642,-0.507507,0.477905,0.656738,0.957656,-0.307866,-0.033082,-24.090622,-64.688482,21.162733
1784931456.2135,15:17:36.213,26,false,0.28679,-0.507629,0.477112,0.657593,0.95668,-0.31519,-0.045289,-23.984451,-64.500247,21.169905
1784931456.2446,15:17:36.244,27,false,0.284433,-0.508118,0.476318,0.658813,0.923476,-0.325444,-0.039918,-23.993575,-64.46542,21.011868
1784931456.2759,15:17:36.275,28,false,0.282252,-0.508423,0.475769,0.659912,0.924453,-0.333257,-0.026246,-24.016739,-64.374261,20.989265
1784931456.3073,15:17:36.307,29,false,0.279351,-0.509399,0.47406,0.661621,0.95668,-0.343023,-0.039918,-24.052542,-64.381941,21.103507
1784931456.3386,15:17:36.338,30,false,0.278531,-0.509827,0.473572,0.661987,0.944472,-0.328374,-0.031617,-24.054856,-64.463621,21.056786
1784931456.3699,15:17:36.369,31,false,0.274644,-0.511902,0.470947,0.663879,0.954238,-0.305425,-0.019409,-23.937308,-64.507226,20.910061
1784931456.4011,15:17:36.401,0,false,0.271687,-0.513794,0.467834,0.665833,0.952285,-0.298589,-0.032593,-23.906284,-64.396933,20.927546
1784931456.4322,15:17:36.432,1,false,0.263364,-0.517883,0.460083,0.671387,0.940078,-0.260014,-0.019409,-23.953132,-64.252807,20.793745
1784931456.4634,15:17:36.463,2,false,0.254814,-0.521851,0.451294,0.677551,0.940566,-0.223392,-0.044312,-24.05511,-64.362355,20.733139
1784931456.4945,15:17:36.494,3,false,0.242886,-0.526306,0.439636,0.686096,0.942031,-0.217533,-0.066285,-23.877722,-64.356271,20.558963
1784931456.5256,15:17:36.525,4,false,0.218463,-0.534058,0.41626,0.702698,0.895644,-0.332769,-0.139528,-23.852656,-64.156396,20.357343
1784931456.5568,15:17:36.556,5,false,0.199479,-0.538757,0.398682,0.714844,0.914199,-0.379156,-0.166384,-23.680559,-63.82697,19.816993
1784931456.5879,15:17:36.587,6,false,0.180352,-0.543091,0.38147,0.725952,0.934707,-0.425055,-0.187381,-23.630349,-63.485625,19.435355
1784931456.6191,15:17:36.619,7,false,0.152853,-0.548157,0.361206,0.738708,0.914199,-0.468513,-0.190311,-23.51039,-63.073737,18.912434
1784931456.6504,15:17:36.650,8,false,0.136773,-0.551086,0.350891,0.744629,0.887343,-0.499275,-0.189822,-23.477197,-62.732946,18.26236
1784931456.6817,15:17:36.681,9,false,0.119538,-0.554504,0.339661,0.750244,0.897597,-0.492439,-0.170779,-23.297784,-62.351465,17.722154
1784931456.7131,15:17:36.713,10,false,0.115335,-0.555786,0.336304,0.751465,0.917128,-0.46363,-0.177127,-23.255943,-61.903455,17.235969
1784931456.7444,15:17:36.744,11,false,0.105838,-0.559998,0.326843,0.753906,0.905898,-0.424079,-0.171267,-23.293056,-61.425477,16.903079
1784931456.7758,15:17:36.775,12,false,0.101125,-0.562622,0.32196,0.7547,0.898085,-0.416754,-0.162478,-23.191873,-60.980343,16.364217
1784931456.8071,15:17:36.807,13,false,0.095971,-0.566528,0.315186,0.75531,0.914199,-0.370855,-0.152224,-23.250346,-60.579722,15.924103
1784931456.8382,15:17:36.838,14,false,0.091736,-0.570007,0.308044,0.756165,0.912245,-0.370855,-0.149294,-23.422603,-60.249071,15.632677
1784931456.8694,15:17:36.869,15,false,0.089978,-0.570984,0.305847,0.756531,0.911269,-0.366461,-0.16492,-23.517819,-59.831855,15.175993
1784931456.9005,15:17:36.900,16,false,0.086362,-0.572998,0.300354,0.757629,0.919081,-0.381598,-0.169802,-23.439021,-59.441406,14.959378
1784931456.9317,15:17:36.931,17,false,0.08435,-0.573975,0.297974,0.758057,0.920058,-0.372808,-0.165408,-23.517641,-58.895602,14.943871
1784931456.9628,15:17:36.962,18,false,0.081723,-0.574951,0.296509,0.758179,0.922988,-0.380133,-0.165408,-23.618307,-58.703456,14.600929
1784931456.9941,15:17:36.994,19,false,0.080477,-0.575256,0.29657,0.758057,0.891249,-0.352789,-0.15613,-23.678999,-58.380985,14.337144
1784931457.0255,15:17:37.025,20,false,0.080668,-0.575439,0.296631,0.757874,0.932265,-0.361089,-0.167849,-23.658852,-57.986085,14.159552
1784931457.0568,15:17:37.056,21,false,0.079868,-0.575684,0.296997,0.757629,0.918593,-0.362554,-0.171267,-23.580904,-57.869936,14.134304
1784931457.0881,15:17:37.088,22,false,0.07901,-0.575928,0.296753,0.757629,0.912734,-0.361578,-0.161013,-23.645336,-57.630818,14.051766
1784931457.1195,15:17:37.119,23,false,0.078384,-0.576355,0.295776,0.757751,0.922988,-0.354253,-0.153689,-23.628556,-57.415611,13.872804
1784931457.1508,15:17:37.150,24,false,0.076864,-0.576965,0.293884,0.758179,0.918593,-0.372808,-0.170291,-23.688223,-57.266787,13.711739
1784931457.1822,15:17:37.182,25,false,0.076184,-0.577393,0.292114,0.758606,0.91371,-0.369879,-0.169314,-23.726969,-57.222568,13.447149
1784931457.2135,15:17:37.213,26,false,0.073803,-0.578918,0.288574,0.759033,0.923476,-0.364508,-0.158572,-23.716979,-56.928556,13.268834
1784931457.2446,15:17:37.244,27,false,0.072995,-0.579468,0.287354,0.759155,0.917617,-0.373297,-0.160525,-23.752849,-56.72376,13.10835
1784931457.2758,15:17:37.275,28,false,0.071888,-0.580261,0.285217,0.75946,0.913222,-0.372808,-0.154177,-23.785133,-56.688982,13.083545
1784931457.3069,15:17:37.306,29,false,0.071248,-0.580688,0.283691,0.759766,0.920058,-0.366461,-0.169802,-23.724465,-56.508144,12.986452
1784931457.3381,15:17:37.338,30,false,0.071545,-0.58136,0.28125,0.760132,0.922988,-0.35816,-0.159548,-23.669864,-56.315481,13.033653
1784931457.3692,15:17:37.369,31,false,0.07254,-0.581909,0.279358,0.760315,0.93373,-0.34107,-0.171756,-23.605769,-56.201901,13.031271
1784931457.4005,15:17:37.400,0,false,0.072982,-0.58252,0.277466,0.760498,0.922988,-0.349859,-0.168826,-23.832207,-56.009955,12.939406
1784931457.4319,15:17:37.431,1,false,0.074981,-0.583069,0.275269,0.760681,0.924453,-0.317632,-0.16199,-23.886462,-55.867112,12.991311
1784931457.4632,15:17:37.463,2,false,0.076706,-0.583435,0.274353,0.760559,0.921523,-0.317632,-0.153689,-23.845569,-55.544153,12.948302
1784931457.4946,15:17:37.494,3,false,0.077513,-0.583923,0.273254,0.760498,0.932753,-0.2981,-0.171267,-23.838673,-55.388074,12.909595
1784931457.5259,15:17:37.525,4,false,0.078747,-0.584106,0.272339,0.760559,0.953262,-0.295171,-0.155154,-24.011913,-55.277511,12.934573
1784931457.557,15:17:37.557,5,false,0.079346,-0.583923,0.272217,0.760681,0.940566,-0.302495,-0.18201,-24.048198,-55.133143,12.927146
1784931457.5882,15:17:37.588,6,false,0.078642,-0.584473,0.27124,0.760681,0.931289,-0.302007,-0.172732,-24.170577,-55.018166,12.830739
1784931457.6193,15:17:37.619,7,false,0.078857,-0.584778,0.270691,0.76062,0.928359,-0.30396,-0.16492,-24.116226,-54.824963,12.684157
1784931457.6505,15:17:37.650,8,false,0.078717,-0.585449,0.269104,0.760681,0.931777,-0.309331,-0.16199,-24.127126,-54.815572,12.612049
1784931457.6816,15:17:37.681,9,false,0.077698,-0.585632,0.268311,0.760925,0.935683,-0.305913,-0.181033,-24.15189,-54.68749,12.741551
1784931457.7127,15:17:37.712,10,false,0.076809,-0.585632,0.2677,0.76123,0.948379,-0.313237,-0.162966,-24.114361,-54.512401,12.693611
1784931457.7439,15:17:37.743,11,false,0.075246,-0.585693,0.266968,0.761597,0.937636,-0.321538,-0.174685,-24.200217,-54.534267,12.725234
1784931457.7752,15:17:37.775,12,false,0.075019,-0.585754,0.266724,0.761658,0.934218,-0.311772,-0.179568,-24.262533,-54.464223,12.738741
1784931457.8066,15:17:37.806,13,false,0.074411,-0.586121,0.265564,0.761841,0.944472,-0.319585,-0.168338,-24.333571,-54.38623,12.616313
1784931457.8379,15:17:37.837,14,false,0.073314,-0.586731,0.264343,0.761902,0.926406,-0.310796,-0.169314,-24.352644,-54.271175,12.47622
1784931457.8692,15:17:37.869,15,false,0.072653,-0.587402,0.262146,0.762207,0.926406,-0.289799,-0.162966,-24.354856,-54.272302,12.394997
1784931457.9006,15:17:37.900,16,false,0.07115,-0.587769,0.260132,0.762756,0.923476,-0.302007,-0.173709,-24.341892,-54.138731,12.456482
1784931457.9319,15:17:37.931,17,false,0.069883,-0.58783,0.258362,0.763428,0.942519,-0.304448,-0.172244,-24.434902,-54.272733,12.407141
1784931457.9632,15:17:37.963,18,false,0.067543,-0.588379,0.254456,0.764526,0.940566,-0.296635,-0.181033,-24.413934,-54.213889,12.213196
1784931457.9944,15:17:37.994,19,false,0.065858,-0.588928,0.251221,0.76532,0.937636,-0.279545,-0.179568,-24.320294,-54.056252,12.218091
1784931458.0255,15:17:38.025,20,false,0.063205,-0.589661,0.247742,0.766113,0.936172,-0.284916,-0.17322,-24.250972,-53.884472,12.028097
1784931458.0567,15:17:38.056,21,false,0.057945,-0.59021,0.242371,0.767822,0.943496,-0.272221,-0.168338,-24.248397,-53.864454,12.021595
1784931458.0878,15:17:38.087,22,false,0.055033,-0.590515,0.238403,0.769043,0.93959,-0.270756,-0.181521,-24.141403,-53.681945,12.060604
1784931458.1189,15:17:38.118,23,false,0.04752,-0.591125,0.231506,0.771179,0.935683,-0.291264,-0.186404,-24.164738,-53.517687,11.841497
1784931458.1503,15:17:38.150,24,false,0.044563,-0.591248,0.229126,0.771973,0.915175,-0.314702,-0.201541,-24.185741,-53.369855,11.793839
1784931458.1816,15:17:38.181,25,false,0.038212,-0.59137,0.223083,0.773987,0.921523,-0.323003,-0.203494,-24.249504,-53.266714,11.676178
1784931458.213,15:17:38.213,26,false,0.033508,-0.591553,0.219727,0.775024,0.928847,-0.321538,-0.205936,-24.247076,-53.129026,11.585237
1784931458.2443,15:17:38.244,27,false,0.028304,-0.591431,0.215576,0.776489,0.941543,-0.33521,-0.225467,-24.170122,-53.005106,11.398713
1784931458.2756,15:17:38.275,28,false,0.026448,-0.591309,0.21283,0.777405,0.944961,-0.339117,-0.227909,-24.250401,-52.74404,11.305611
1784931458.3068,15:17:38.306,29,false,0.025796,-0.591309,0.212463,0.777527,0.922499,-0.322515,-0.228885,-24.128253,-52.658619,11.371357
1784931458.3381,15:17:38.338,30,false,0.022095,-0.592041,0.21106,0.777466,0.921035,-0.321538,-0.212772,-24.167857,-52.46211,11.206221
1784931458.3693,15:17:38.369,31,false,0.021291,-0.592651,0.210327,0.777222,0.920546,-0.314214,-0.213748,-24.024055,-52.210482,11.237045
1784931458.4004,15:17:38.400,0,false,0.01938,-0.593262,0.210144,0.776855,0.923964,-0.325933,-0.212284,-24.029218,-52.148509,11.219924
1784931458.4315,15:17:38.431,1,false,0.01953,-0.593628,0.210449,0.776489,0.935683,-0.314702,-0.207889,-24.063773,-52.137595,11.234424
1784931458.4627,15:17:38.462,2,false,0.017949,-0.594055,0.21051,0.776184,0.9308,-0.313237,-0.197635,-24.139733,-51.903464,11.068027
1784931458.4938,15:17:38.493,3,false,0.018271,-0.594543,0.209778,0.776001,0.924453,-0.309819,-0.21326,-24.17819,-51.857239,10.978086
1784931458.5252,15:17:38.525,4,false,0.01853,-0.59491,0.209167,0.775879,0.922011,-0.32105,-0.198611,-24.272616,-51.696006,11.016769
1784931458.5565,15:17:38.556,5,false,0.018551,-0.595581,0.207703,0.775757,0.938125,-0.313725,-0.208865,-24.252923,-51.476127,10.976815
1784931458.5878,15:17:38.587,6,false,0.019452,-0.596436,0.205383,0.775696,0.917128,-0.293217,-0.191775,-24.280061,-51.367959,10.776364
1784931458.6192,15:17:38.619,7,false,0.018254,-0.596863,0.203552,0.775879,0.937148,-0.264408,-0.198123,-24.259623,-51.285562,10.76045
1784931458.6505,15:17:38.650,8,false,0.020154,-0.597473,0.200867,0.776062,0.938125,-0.259037,-0.197147,-24.435629,-51.151588,10.761082
1784931458.6819,15:17:38.681,9,false,0.0191,-0.597656,0.199951,0.776184,0.937636,-0.262455,-0.203494,-24.414589,-51.075874,10.76165
1784931458.713,15:17:38.713,10,false,0.017584,-0.598083,0.196411,0.776794,0.944961,-0.221927,-0.1991,-24.42556,-50.96287,10.762162
1784931458.7441,15:17:38.744,11,false,0.019203,-0.599121,0.191589,0.777161,0.954726,-0.187259,-0.202029,-24.480295,-50.831258,10.807484
1784931458.7753,15:17:38.775,12,false,0.011722,-0.601563,0.176514,0.778992,0.91371,-0.201419,-0.212284,-24.409927,-50.667946,10.848274
1784931458.8064,15:17:38.806,13,false,0.003107,-0.602295,0.16626,0.780762,0.961074,-0.280522,-0.251835,-24.40641,-50.401335,10.87003
1784931458.8375,15:17:38.837,14,false,0.008031,0.603027,-0.157471,-0.781982,0.959609,-0.282963,-0.241581,-24.463061,-50.0268,10.859704
1784931458.8687,15:17:38.868,15,false,0.011205,0.604248,-0.148071,-0.782837,0.942519,-0.308843,-0.243046,-24.543954,-49.764488,10.85041
1784931458.8998,15:17:38.899,16,false,0.016957,0.604675,-0.144775,-0.78302,0.945937,-0.30103,-0.240116,-24.58685,-49.603176,10.812138
1784931458.9312,15:17:38.931,17,false,0.020472,0.605347,-0.142822,-0.782776,0.953262,-0.275639,-0.222049,-24.610503,-49.338364,10.717878
1784931458.9625,15:17:38.962,18,false,0.023641,0.60675,-0.139343,-0.782227,0.925917,-0.264408,-0.204959,-24.601882,-48.995357,10.692859
1784931458.9938,15:17:38.993,19,false,0.024339,0.607422,-0.136963,-0.782104,0.931289,-0.236576,-0.209842,-24.624032,-48.671697,10.730157
1784931459.0252,15:17:39.025,20,false,0.02693,0.607849,-0.13385,-0.782227,0.944472,-0.234623,-0.21619,-24.733689,-48.440218,10.808587
1784931459.0565,15:17:39.056,21,false,0.026305,0.608093,-0.132141,-0.782349,0.959121,-0.238529,-0.220584,-24.772566,-48.142164,10.759544
1784931459.0877,15:17:39.087,22,false,0.027642,0.608337,-0.130371,-0.78241,0.949355,-0.23267,-0.23035,-24.747739,-47.8141,10.939712
1784931459.119,15:17:39.119,23,false,0.030069,0.608521,-0.128601,-0.782471,0.954238,-0.237064,-0.235721,-24.800164,-47.488935,10.89251
1784931459.1501,15:17:39.150,24,false,0.030295,0.608704,-0.128052,-0.78241,0.948379,-0.226322,-0.23035,-24.802486,-47.390686,10.760305
1784931459.1813,15:17:39.181,25,false,0.030437,0.609314,-0.126221,-0.782227,0.942031,-0.237064,-0.218631,-24.834483,-47.302262,10.895535
1784931459.2124,15:17:39.212,26,false,0.030266,0.609436,-0.125671,-0.782227,0.95668,-0.218021,-0.228885,-24.848326,-47.237635,11.032197
1784931459.2436,15:17:39.243,27,false,0.029145,0.609497,-0.124878,-0.782349,0.94789,-0.225345,-0.232792,-24.786016,-47.1047,10.975746
1784931459.2747,15:17:39.274,28,false,0.02767,0.609619,-0.125,-0.782288,0.952285,-0.240482,-0.220584,-24.759844,-47.029921,10.92494
1784931459.306,15:17:39.306,29,false,0.027625,0.610046,-0.125977,-0.781799,0.93373,-0.235111,-0.226444,-24.885828,-46.96262,11.058661
1784931459.3374,15:17:39.337,30,false,0.026542,0.610168,-0.127502,-0.781494,0.930312,-0.253666,-0.21326,-24.819767,-46.82728,11.149102
1784931459.3687,15:17:39.368,31,false,0.022383,0.609924,-0.130554,-0.781311,0.930312,-0.280522,-0.230838,-24.760313,-46.780242,11.051053
1784931459.4001,15:17:39.400,0,false,0.01621,0.607971,-0.141235,-0.781128,0.965469,-0.364019,-0.237675,-24.88625,-46.767817,10.962809
1784931459.4314,15:17:39.431,1,false,0.010358,0.60614,-0.153198,-0.780396,0.966445,-0.329839,-0.231327,-24.820147,-46.801495,10.913297
1784931459.4627,15:17:39.462,2,false,0.0,0.604858,-0.166809,-0.778687,0.949844,-0.308354,-0.234745,-24.865332,-46.981344,10.719198
1784931459.494,15:17:39.494,3,false,0.015454,-0.602417,0.190491,0.774963,0.908339,-0.303471,-0.212772,-24.801321,-47.247885,10.723955
1784931459.5251,15:17:39.525,4,false,0.026901,-0.599854,0.207458,0.772278,0.928847,-0.26978,-0.186893,-24.624081,-47.562541,10.728236
1784931459.5563,15:17:39.556,5,false,0.045521,-0.597168,0.227112,0.767944,0.955215,-0.217044,-0.184939,-24.614102,-47.845732,10.806858
1784931459.5874,15:17:39.587,6,false,0.051404,-0.596191,0.232483,0.766724,0.925917,-0.242924,-0.186893,-24.395768,-48.339864,10.937433
1784931459.6185,15:17:39.618,7,false,0.063675,-0.591675,0.246399,0.764954,0.945449,-0.282963,-0.194705,-24.408622,-48.694861,10.995136
1784931459.6497,15:17:39.649,8,false,0.070981,-0.588318,0.254578,0.764221,0.948867,-0.292729,-0.181033,-24.420189,-49.148942,11.121837
1784931459.681,15:17:39.681,9,false,0.081018,-0.584656,0.264404,0.762695,0.941543,-0.289799,-0.178592,-24.50537,-49.677247,11.161099
1784931459.7123,15:17:39.712,10,false,0.089516,-0.581299,0.272461,0.761475,0.925917,-0.292729,-0.18201,-24.41754,-50.167674,11.211389
1784931459.7437,15:17:39.743,11,false,0.092493,-0.580017,0.275208,0.761108,0.939101,-0.289799,-0.190799,-24.338493,-50.683828,11.376281
1784931459.775,15:17:39.775,12,false,0.101002,-0.576538,0.282959,0.759827,0.955215,-0.281498,-0.18201,-24.312212,-51.223136,11.449914
1784931459.8062,15:17:39.806,13,false,0.105466,-0.575073,0.286743,0.758911,0.941543,-0.279545,-0.200076,-24.168928,-51.708513,11.411507
1784931459.8373,15:17:39.837,14,false,0.111186,-0.572144,0.293274,0.757813,0.934707,-0.331304,-0.19617,-24.039973,-52.145352,11.556386
1784931459.8684,15:17:39.868,15,false,0.115738,-0.569641,0.299316,0.756653,0.918105,-0.337652,-0.172244,-23.834191,-52.478692,11.552193
1784931459.8996,15:17:39.899,16,false,0.12105,-0.567017,0.30658,0.754883,0.911757,-0.349859,-0.170779,-23.678894,-52.853467,11.653097
1784931459.9307,15:17:39.930,17,false,0.130375,-0.562012,0.319641,0.751648,0.915663,-0.342535,-0.158572,-23.658758,-53.370211,11.74391
1784931459.9619,15:17:39.961,18,false,0.136986,-0.5578,0.329407,0.74939,0.909316,-0.346441,-0.160037,-23.565866,-53.91005,11.97518
1784931459.993,15:17:39.993,19,false,0.143306,-0.553528,0.338379,0.747375,0.923476,-0.336675,-0.155154,-23.482263,-54.246366,12.183323
1784931460.0241,15:17:40.024,20,false,0.151335,-0.546509,0.350647,0.7453,0.922499,-0.357671,-0.165896,-23.362159,-54.81822,12.340744
1784931460.0555,15:17:40.055,21,false,0.15679,-0.541382,0.358704,0.74408,0.925429,-0.393317,-0.165896,-23.343789,-55.30298,12.3927
1784931460.0868,15:17:40.086,22,false,0.164713,-0.534485,0.369873,0.741882,0.924453,-0.369879,-0.158083,-23.087994,-55.948619,12.529183
1784931460.1182,15:17:40.118,23,false,0.167351,-0.532471,0.373291,0.741028,0.919081,-0.369879,-0.165896,-23.052178,-56.559601,12.711834
1784931460.1495,15:17:40.149,24,false,0.175158,-0.526733,0.38269,0.738525,0.91371,-0.364508,-0.156619,-22.735821,-57.139393,12.786496
1784931460.1808,15:17:40.180,25,false,0.180031,-0.522888,0.388367,0.737122,0.900526,-0.37818,-0.143435,-22.436146,-57.676159,12.943415
1784931460.2122,15:17:40.212,26,false,0.186544,-0.516785,0.395935,0.735779,0.909804,-0.385504,-0.148318,-22.4057,-58.174203,13.11455
1784931460.2433,15:17:40.243,27,false,0.1907,-0.512512,0.400391,0.735291,0.897597,-0.387945,-0.157107,-22.30353,-58.697212,13.373249
1784931460.2745,15:17:40.274,28,false,0.194401,-0.508728,0.40387,0.735046,0.921523,-0.385992,-0.149294,-22.271391,-59.182873,13.411677
1784931460.3056,15:17:40.305,29,false,0.19925,-0.503296,0.408508,0.734924,0.909316,-0.395758,-0.169802,-22.063021,-59.784461,13.565894
1784931460.3367,15:17:40.336,30,false,0.202244,-0.500122,0.411255,0.734741,0.901015,-0.404547,-0.168338,-21.920349,-60.221213,13.674781
1784931460.3679,15:17:40.367,31,false,0.205222,-0.49707,0.414124,0.734375,0.896132,-0.404059,-0.167849,-21.672313,-60.614289,13.772779
1784931460.399,15:17:40.399,0,false,0.209842,-0.492859,0.418335,0.733521,0.900038,-0.404059,-0.174685,-21.329451,-61.057781,13.875932
1784931460.4304,15:17:40.430,1,false,0.212791,-0.490051,0.421204,0.73291,0.901015,-0.414313,-0.174685,-21.185366,-61.471878,13.953815
1784931460.4617,15:17:40.461,2,false,0.217208,-0.485535,0.425537,0.732117,0.884901,-0.435798,-0.160037,-20.995875,-61.904381,14.173448
1784931460.493,15:17:40.493,3,false,0.220624,-0.482605,0.428467,0.731323,0.893202,-0.430915,-0.181033,-20.825333,-62.248771,14.191672
1784931460.5244,15:17:40.524,4,false,0.224556,-0.479858,0.43158,0.730103,0.897108,-0.416754,-0.175662,-20.686799,-62.58863,14.297797
1784931460.5557,15:17:40.555,5,false,0.229851,-0.47583,0.436829,0.727966,0.883436,-0.397711,-0.163943,-20.442488,-62.789827,14.378355
1784931460.5868,15:17:40.586,6,false,0.232885,-0.472778,0.440552,0.726746,0.89662,-0.411872,-0.17322,-20.417008,-63.255027,14.435904
1784931460.618,15:17:40.618,7,false,0.236369,-0.467834,0.44635,0.725281,0.909804,-0.42945,-0.166384,-20.274445,-63.539122,14.472744
1784931460.6491,15:17:40.649,8,false,0.237645,-0.466309,0.448059,0.724792,0.890272,-0.440681,-0.161013,-20.310631,-63.854623,14.520853
1784931460.6805,15:17:40.680,9,false,0.240563,-0.462341,0.452759,0.72345,0.892714,-0.43238,-0.170291,-20.253475,-64.078759,14.504337
1784931460.7116,15:17:40.711,10,false,0.242596,-0.459961,0.455261,0.722717,0.879042,-0.436774,-0.175662,-20.291757,-64.265527,14.579195
1784931460.7427,15:17:40.742,11,false,0.245288,-0.456238,0.458618,0.722046,0.877577,-0.418708,-0.166873,-20.236489,-64.568203,14.661521
1784931460.7739,15:17:40.773,12,false,0.247093,-0.453613,0.460632,0.721802,0.889296,-0.436286,-0.175174,-20.0073,-64.855565,14.79543
1784931460.8052,15:17:40.805,13,false,0.249402,-0.450867,0.462463,0.721558,0.873182,-0.441657,-0.171756,-20.025339,-65.144099,14.736502
1784931460.8366,15:17:40.836,14,false,0.251961,-0.447205,0.464722,0.721497,0.883925,-0.43238,-0.167849,-19.877082,-65.314056,14.847959
1784931460.8679,15:17:40.867,15,false,0.253674,-0.445129,0.466064,0.721313,0.897108,-0.444099,-0.185428,-19.878234,-65.481971,14.933316
1784931460.8992,15:17:40.899,16,false,0.255645,-0.443054,0.467529,0.720947,0.878553,-0.443122,-0.177127,-19.729733,-65.633095,15.114815
1784931460.9306,15:17:40.930,17,false,0.259056,-0.440002,0.470032,0.719971,0.880507,-0.439704,-0.174685,-19.670852,-65.888737,15.233302
1784931460.9619,15:17:40.961,18,false,0.261014,-0.43811,0.471741,0.719299,0.888319,-0.433845,-0.182986,-19.543089,-66.118815,15.100679
1784931460.9931,15:17:40.993,19,false,0.263436,-0.435425,0.474731,0.718079,0.857557,-0.4607,-0.190311,-19.323426,-66.445516,15.280395
1784931461.0242,15:17:41.024,20,false,0.264451,-0.434448,0.475891,0.717529,0.885878,-0.451911,-0.182498,-19.305175,-66.500286,15.382325
1784931461.0553,15:17:41.055,21,false,0.267096,-0.431885,0.479126,0.715942,0.895644,-0.46363,-0.168826,-19.154165,-66.684163,15.563784
1784931461.0867,15:17:41.086,22,false,0.267941,-0.430908,0.481079,0.714905,0.877089,-0.457282,-0.160037,-19.167794,-66.670206,15.62242
1784931461.1178,15:17:41.117,23,false,0.268825,-0.429443,0.483521,0.713806,0.867811,-0.460212,-0.150759,-19.075383,-66.837091,15.854639
1784931461.149,15:17:41.149,24,false,0.269254,-0.427673,0.485657,0.713257,0.877577,-0.480232,-0.16199,-18.932398,-67.002241,15.973913
1784931461.1803,15:17:41.180,25,false,0.269444,-0.427063,0.486267,0.713135,0.85951,-0.46949,-0.157595,-18.863527,-67.210692,16.066306
1784931461.2116,15:17:41.211,26,false,0.269924,-0.425537,0.487427,0.713074,0.873671,-0.470954,-0.165896,-18.90622,-67.144082,16.044783
1784931461.243,15:17:41.243,27,false,0.270644,-0.424622,0.487915,0.713013,0.8766,-0.476326,-0.168826,-18.795105,-67.263578,16.159996
1784931461.2743,15:17:41.274,28,false,0.271719,-0.42334,0.488342,0.713074,0.858045,-0.451423,-0.162478,-18.635286,-67.505712,16.218827
1784931461.3057,15:17:41.305,29,false,0.271927,-0.422729,0.48822,0.71344,0.862928,-0.450935,-0.176638,-18.536311,-67.648861,16.226913
1784931461.337,15:17:41.337,30,false,0.271821,-0.422363,0.487793,0.713989,0.863416,-0.44361,-0.169314,-18.462187,-67.687973,16.144467
1784931461.3681,15:17:41.368,31,false,0.270855,-0.421204,0.487366,0.715332,0.872694,-0.467048,-0.183474,-18.305752,-67.917574,16.159989
1784931461.3993,15:17:41.399,0,false,0.270335,-0.420471,0.487122,0.716125,0.869276,-0.466072,-0.179568,-18.3145,-68.124214,16.218821
1784931461.4304,15:17:41.430,1,false,0.269708,-0.4198,0.487061,0.716797,0.866835,-0.478279,-0.17615,-18.307418,-68.145698,16.137184
1784931461.4616,15:17:41.461,2,false,0.268779,-0.419495,0.486938,0.717407,0.869276,-0.491951,-0.183474,-18.24123,-68.15008,16.123527
1784931461.4927,15:17:41.492,3,false,0.268083,-0.419556,0.487,0.71759,0.876112,-0.491463,-0.180545,-18.136799,-68.258701,16.081327
1784931461.5238,15:17:41.523,4,false,0.267556,-0.419434,0.487305,0.717651,0.859022,-0.490974,-0.173709,-18.222257,-68.266736,16.192886
1784931461.5552,15:17:41.555,5,false,0.267333,-0.419434,0.487427,0.717651,0.85951,-0.482673,-0.175174,-18.239353,-68.333783,16.173659
1784931461.5865,15:17:41.586,6,false,0.266757,-0.419128,0.487915,0.717712,0.852186,-0.502693,-0.171756,-18.13511,-68.319357,16.081585
1784931461.6178,15:17:41.617,7,false,0.266591,-0.418945,0.488342,0.71759,0.857069,-0.507576,-0.175174,-18.160921,-68.381142,16.073487
1784931461.6492,15:17:41.649,8,false,0.266397,-0.418518,0.489441,0.717163,0.8766,-0.512947,-0.181033,-18.079475,-68.376933,16.081154
1784931461.6805,15:17:41.680,9,false,0.266676,-0.418457,0.490234,0.716553,0.84242,-0.511482,-0.177127,-17.961311,-68.388099,16.222638
1784931461.7117,15:17:41.711,10,false,0.267475,-0.418518,0.490906,0.715759,0.839979,-0.510994,-0.158083,-18.004503,-68.51778,16.349973
1784931461.7428,15:17:41.742,11,false,0.268661,-0.418762,0.492004,0.714417,0.870741,-0.494881,-0.158083,-17.968606,-68.559723,16.464575
1784931461.7739,15:17:41.773,12,false,0.269577,-0.418945,0.492676,0.713501,0.857557,-0.484138,-0.164431,-17.966206,-68.55261,16.492948
1784931461.8051,15:17:41.805,13,false,0.270805,-0.418945,0.493591,0.712402,0.86537,-0.491951,-0.158572,-18.068723,-68.7107,16.712883
1784931461.8362,15:17:41.836,14,false,0.272353,-0.418579,0.495422,0.710754,0.850233,-0.498787,-0.154177,-17.966589,-68.823074,16.761287
1784931461.8674,15:17:41.867,15,false,0.273347,-0.418152,0.49646,0.7099,0.849256,-0.489509,-0.142458,-17.964391,-68.909257,16.715127
1784931461.8985,15:17:41.898,16,false,0.275,-0.41748,0.497681,0.708801,0.871717,-0.491951,-0.156619,-17.887644,-68.717652,16.823121
1784931461.9298,15:17:41.929,17,false,0.275955,-0.417542,0.49823,0.708008,0.85658,-0.487556,-0.160037,-17.953156,-68.859239,16.830593
1784931461.9612,15:17:41.961,18,false,0.277222,-0.417847,0.498657,0.707031,0.863905,-0.484138,-0.160037,-18.02707,-68.896943,16.927041
1784931461.9925,15:17:41.992,19,false,0.278508,-0.418823,0.499023,0.705688,0.862928,-0.466072,-0.161501,-17.988917,-68.826201,16.939075
1784931462.0239,15:17:42.023,20,false,0.279553,-0.4198,0.499084,0.704651,0.856092,-0.436286,-0.151736,-17.984486,-68.79244,16.949905
1784931462.0552,15:17:42.055,21,false,0.280778,-0.420593,0.499451,0.70343,0.865858,-0.434821,-0.14197,-17.920683,-68.717194,16.944699
1784931462.0865,15:17:42.086,22,false,0.280903,-0.42041,0.499878,0.703186,0.876112,-0.468025,-0.144411,-17.923076,-68.694334,17.209182
1784931462.1177,15:17:42.117,23,false,0.281598,-0.418152,0.502319,0.702515,0.870253,-0.469001,-0.142458,-17.895321,-68.823298,17.267771
1784931462.1488,15:17:42.148,24,false,0.281409,-0.417175,0.503662,0.702209,0.880507,-0.472908,-0.144411,-18.019881,-68.789828,17.170963
1784931462.18,15:17:42.180,25,false,0.281585,-0.416565,0.506104,0.700745,0.895644,-0.473884,-0.135134,-18.087123,-68.759704,17.382912
1784931462.2111,15:17:42.211,26,false,0.281626,-0.41687,0.507263,0.699707,0.863416,-0.476814,-0.127321,-18.042964,-68.732593,17.349359
1784931462.2422,15:17:42.242,27,false,0.281854,-0.41748,0.507813,0.698853,0.874159,-0.472908,-0.123903,-18.092944,-68.543701,17.304207
1784931462.2734,15:17:42.273,28,false,0.282137,-0.418762,0.508362,0.697571,0.883925,-0.468025,-0.124392,-18.212695,-68.553144,17.368247
1784931462.3045,15:17:42.304,29,false,0.282577,-0.419739,0.508484,0.696716,0.860487,-0.470466,-0.127321,-18.290563,-68.785951,17.351114
1784931462.3359,15:17:42.335,30,false,0.283361,-0.420654,0.508545,0.695801,0.874159,-0.467048,-0.120485,-18.181199,-68.801077,17.500187
1784931462.3672,15:17:42.367,31,false,0.285394,-0.421753,0.508667,0.694214,0.874159,-0.44947,-0.131716,-18.187448,-68.859551,17.694168
1784931462.3985,15:17:42.398,0,false,0.286021,-0.422913,0.50885,0.693115,0.896132,-0.453376,-0.11902,-18.103348,-68.882271,17.719212
1784931462.4299,15:17:42.429,1,false,0.286886,-0.424438,0.509583,0.691284,0.889296,-0.455818,-0.113161,-18.057567,-68.917672,17.876336
1784931462.461,15:17:42.461,2,false,0.287017,-0.424805,0.509949,0.690735,0.888808,-0.461189,-0.105348,-18.091133,-68.799995,17.898117
1784931462.4922,15:17:42.492,3,false,0.287591,-0.42572,0.510925,0.689209,0.87953,-0.465583,-0.109743,-18.15125,-68.888486,17.99249
1784931462.5233,15:17:42.523,4,false,0.287881,-0.42627,0.511292,0.688477,0.875135,-0.454841,-0.114137,-18.190401,-69.012989,17.987702
1784931462.5544,15:17:42.554,5,false,0.287571,-0.42749,0.511597,0.687622,0.874159,-0.4607,-0.117556,-18.210683,-69.005411,17.968439
1784931462.5856,15:17:42.585,6,false,0.2876,-0.429016,0.512024,0.68634,0.887831,-0.452888,-0.128298,-18.318661,-68.968683,18.115594
1784931462.6167,15:17:42.616,7,false,0.28769,-0.429688,0.512146,0.685791,0.880507,-0.428962,-0.104372,-18.22144,-69.010397,18.143357
1784931462.648,15:17:42.648,8,false,0.287557,-0.432251,0.512268,0.684143,0.900038,-0.427497,-0.099489,-18.343296,-69.077848,18.258067
1784931462.6792,15:17:42.679,9,false,0.28676,-0.434631,0.511841,0.683289,0.900038,-0.434821,-0.099489,-18.602504,-68.989015,18.421121
1784931462.7105,15:17:42.710,10,false,0.284289,-0.438538,0.511108,0.682373,0.902968,-0.430426,-0.077516,-18.611484,-69.088511,18.463193
1784931462.7419,15:17:42.741,11,false,0.282216,-0.440796,0.510803,0.682007,0.882948,-0.443122,-0.074098,-18.724242,-69.267781,18.560873
1784931462.7732,15:17:42.773,12,false,0.279313,-0.442993,0.510498,0.682007,0.878065,-0.44361,-0.065797,-18.691141,-69.040324,18.633831
1784931462.8045,15:17:42.804,13,false,0.275669,-0.445129,0.51062,0.682007,0.871717,-0.468025,-0.061402,-18.810887,-69.05992,18.804171
1784931462.8359,15:17:42.835,14,false,0.27382,-0.446106,0.510681,0.682068,0.859998,-0.475349,-0.062379,-18.754167,-69.062603,18.942522
1784931462.867,15:17:42.867,15,false,0.272308,-0.44696,0.510498,0.682251,0.877089,-0.47779,-0.058961,-19.002196,-68.915479,19.067039
1784931462.8982,15:17:42.898,16,false,0.270441,-0.448181,0.509521,0.682922,0.873182,-0.468513,-0.055543,-19.090837,-68.947559,19.014611
1784931462.9293,15:17:42.929,17,false,0.269767,-0.448303,0.508789,0.683655,0.871717,-0.475837,-0.059937,-19.050984,-68.871755,18.922565
1784931462.9604,15:17:42.960,18,false,0.269044,-0.448303,0.507446,0.684937,0.887343,-0.46363,-0.055543,-19.1497,-68.923162,18.974308
1784931462.9916,15:17:42.991,19,false,0.26883,-0.44812,0.506897,0.685547,0.8766,-0.467536,-0.07068,-19.328268,-68.954474,18.961061
1784931463.0227,15:17:43.022,20,false,0.268839,-0.446838,0.505127,0.687683,0.876112,-0.472908,-0.091188,-19.41421,-68.877979,18.919231
1784931463.0539,15:17:43.053,21,false,0.268789,-0.445862,0.503601,0.689453,0.881971,-0.461677,-0.094118,-19.446696,-68.674548,19.046077
1784931463.0852,15:17:43.085,22,false,0.26876,-0.444336,0.500854,0.692444,0.888319,-0.469978,-0.118044,-19.431072,-68.49146,18.906022
1784931463.1165,15:17:43.116,23,false,0.269218,-0.443176,0.499268,0.694153,0.883436,-0.461189,-0.125368,-19.431964,-68.491174,18.76502
1784931463.1479,15:17:43.147,24,false,0.269598,-0.4422,0.497803,0.695679,0.880018,-0.480232,-0.129763,-19.313136,-68.401193,18.682979
1784931463.1792,15:17:43.179,25,false,0.270071,-0.440369,0.496948,0.697266,0.894179,-0.481209,-0.133669,-19.310868,-68.394979,18.609142
1784931463.2106,15:17:43.210,26,false,0.27098,-0.43927,0.496826,0.697693,0.879042,-0.466072,-0.138064,-19.249012,-68.329571,18.348289
1784931463.2419,15:17:43.241,27,false,0.272289,-0.438293,0.496887,0.697754,0.880995,-0.468513,-0.141482,-19.327925,-68.225843,18.307921
1784931463.2732,15:17:43.273,28,false,0.274652,-0.437317,0.496704,0.697571,0.889296,-0.46656,-0.140993,-19.339132,-68.252118,18.226728
1784931463.3044,15:17:43.304,29,false,0.276718,-0.436584,0.496887,0.697083,0.890272,-0.469978,-0.137575,-19.229588,-68.186042,18.243378
1784931463.3355,15:17:43.335,30,false,0.280251,-0.435791,0.497314,0.695862,0.886366,-0.442145,-0.12781,-19.160905,-68.201344,18.318178
1784931463.3666,15:17:43.366,31,false,0.282913,-0.435364,0.497803,0.694702,0.883436,-0.443122,-0.138552,-19.099091,-68.140346,18.206052
1784931463.3978,15:17:43.397,0,false,0.28522,-0.434814,0.498413,0.693665,0.886366,-0.428473,-0.130739,-19.133181,-68.100401,18.164954
1784931463.4289,15:17:43.428,1,false,0.288921,-0.433594,0.499634,0.692017,0.901015,-0.429938,-0.129274,-18.99937,-68.199036,18.142919
1784931463.4603,15:17:43.460,2,false,0.29109,-0.432617,0.500488,0.691101,0.881971,-0.42652,-0.12195,-19.088294,-68.123315,18.138042
1784931463.4916,15:17:43.491,3,false,0.293126,-0.430603,0.501709,0.690613,0.88246,-0.418219,-0.133181,-19.153372,-68.07012,18.118699
1784931463.5229,15:17:43.522,4,false,0.293777,-0.429688,0.502197,0.690552,0.887831,-0.412848,-0.140017,-19.077357,-68.261506,18.086336
1784931463.5543,15:17:43.554,5,false,0.294647,-0.427551,0.503174,0.690796,0.866346,-0.450935,-0.130739,-19.113621,-68.254307,18.087117
1784931463.5856,15:17:43.585,6,false,0.295814,-0.425537,0.504028,0.690918,0.855604,-0.459724,-0.128786,-19.176166,-68.262782,17.96819
1784931463.6168,15:17:43.616,7,false,0.298077,-0.422241,0.505798,0.690674,0.890761,-0.468513,-0.135622,-19.172641,-68.255455,17.980786
1784931463.6479,15:17:43.647,8,false,0.300125,-0.420105,0.507446,0.68988,0.886366,-0.474861,-0.1449,-19.124607,-68.3984,17.932306
1784931463.679,15:17:43.679,9,false,0.301996,-0.418518,0.508972,0.688904,0.889296,-0.44654,-0.131228,-19.215961,-68.317696,18.038214
1784931463.7102,15:17:43.710,10,false,0.305867,-0.415405,0.511597,0.687134,0.879042,-0.452399,-0.140505,-19.268272,-68.54414,18.028853
1784931463.7413,15:17:43.741,11,false,0.308469,-0.413208,0.513367,0.685974,0.877089,-0.470954,-0.137087,-19.210675,-68.658216,18.155014
1784931463.7725,15:17:43.772,12,false,0.311282,-0.411194,0.515076,0.684631,0.881971,-0.446052,-0.140017,-19.113976,-68.775838,18.178835
1784931463.8036,15:17:43.803,13,false,0.314736,-0.409119,0.5177,0.682312,0.886854,-0.455329,-0.133669,-19.056855,-68.956468,18.200274
1784931463.8349,15:17:43.834,14,false,0.317353,-0.408081,0.519409,0.68042,0.88246,-0.477302,-0.131228,-19.065261,-69.133988,18.369107
1784931463.8663,15:17:43.866,15,false,0.321245,-0.406738,0.521973,0.677429,0.888808,-0.4607,-0.124392,-18.923288,-69.144218,18.236934
1784931463.8976,15:17:43.897,16,false,0.322579,-0.406311,0.522827,0.676392,0.905898,-0.42652,-0.128786,-18.855328,-68.988932,18.43201
1784931463.929,15:17:43.929,17,false,0.325517,-0.405212,0.525085,0.673889,0.887343,-0.413336,-0.123415,-18.749302,-68.998714,18.532808
1784931463.9603,15:17:43.960,18,false,0.327145,-0.404663,0.526062,0.672668,0.897597,-0.404547,-0.113649,-18.788464,-68.992563,18.71325
1784931463.9914,15:17:43.991,19,false,0.328233,-0.404602,0.526367,0.671936,0.894667,-0.404059,-0.123415,-18.838663,-69.181428,18.785924
1784931464.0228,15:17:44.022,20,false,0.328639,-0.405396,0.525269,0.672119,0.894667,-0.409918,-0.124392,-18.689442,-69.246729,18.956008
1784931464.0539,15:17:44.053,21,false,0.328392,-0.405823,0.52478,0.672363,0.907851,-0.416754,-0.110719,-18.749544,-69.3055,19.034314
1784931464.0853,15:17:44.085,22,false,0.326496,-0.407104,0.52301,0.673889,0.901503,-0.425544,-0.134646,-18.818589,-69.298579,19.089836
1784931464.1164,15:17:44.116,23,false,0.324761,-0.408081,0.521912,0.674988,0.880018,-0.431403,-0.129274,-18.761098,-69.307303,19.07999
1784931464.1475,15:17:44.147,24,false,0.322545,-0.409119,0.520813,0.67627,0.889784,-0.453864,-0.135134,-18.709357,-69.285248,19.115991
1784931464.1789,15:17:44.178,25,false,0.321389,-0.409485,0.520447,0.67688,0.881483,-0.458259,-0.125368,-18.767467,-69.220536,19.103529
1784931464.2102,15:17:44.210,26,false,0.320458,-0.409973,0.520081,0.677307,0.886854,-0.437751,-0.123903,-18.685181,-69.147342,19.047453
1784931464.2415,15:17:44.241,27,false,0.31922,-0.410828,0.519531,0.677795,0.876112,-0.448005,-0.120974,-18.685893,-69.081467,19.026892
1784931464.2729,15:17:44.272,28,false,0.318566,-0.411194,0.519165,0.678162,0.884413,-0.44654,-0.125856,-18.55195,-69.111903,19.02334
1784931464.3042,15:17:44.304,29,false,0.318564,-0.411255,0.518799,0.678406,0.892714,-0.447028,-0.123415,-18.670662,-69.109387,19.139775
1784931464.3356,15:17:44.335,30,false,0.318783,-0.411499,0.518311,0.678528,0.892226,-0.447028,-0.119997,-18.598057,-69.047308,19.184751
1784931464.3669,15:17:44.366,31,false,0.31815,-0.412354,0.5177,0.678772,0.894179,-0.459236,-0.130251,-18.667296,-69.051252,19.135506
1784931464.398,15:17:44.398,0,false,0.317058,-0.413818,0.516479,0.679321,0.893202,-0.44361,-0.125368,-18.639889,-68.965078,19.106139
1784931464.4292,15:17:44.429,1,false,0.316794,-0.414429,0.515991,0.679443,0.890761,-0.44654,-0.11902,-18.7199,-68.962291,19.00494
1784931464.4603,15:17:44.460,2,false,0.316129,-0.415955,0.514526,0.679932,0.886854,-0.428473,-0.114626,-18.71714,-68.989691,18.913861
1784931464.4915,15:17:44.491,3,false,0.315459,-0.41687,0.51355,0.68042,0.884413,-0.426032,-0.120974,-18.759518,-68.984443,18.801982
1784931464.5226,15:17:44.522,4,false,0.314167,-0.417603,0.512451,0.681396,0.878065,-0.429938,-0.119997,-18.857473,-68.889996,18.641476
1784931464.5537,15:17:44.553,5,false,0.312935,-0.41803,0.511475,0.682434,0.89955,-0.438239,-0.124392,-18.900771,-68.804995,18.61665
1784931464.5851,15:17:44.585,6,false,0.311796,-0.418579,0.510498,0.68335,0.902968,-0.427497,-0.12195,-18.86497,-68.758401,18.728892
1784931464.6164,15:17:44.616,7,false,0.309379,-0.419556,0.508545,0.685303,0.880995,-0.441169,-0.127321,-18.95238,-68.746374,18.725233
1784931464.6478,15:17:44.647,8,false,0.307902,-0.420288,0.506775,0.686829,0.898085,-0.436774,-0.140993,-18.881511,-68.630873,18.617263
1784931464.6791,15:17:44.679,9,false,0.305762,-0.421204,0.504822,0.68866,0.896132,-0.456794,-0.13611,-18.86259,-68.586737,18.535044
1784931464.7104,15:17:44.710,10,false,0.302299,-0.422058,0.502686,0.691223,0.891249,-0.469001,-0.146853,-18.920331,-68.547015,18.386278
1784931464.7418,15:17:44.741,11,false,0.300482,-0.421936,0.502197,0.692444,0.871229,-0.452888,-0.14197,-18.882574,-68.600988,18.342111
1784931464.7731,15:17:44.773,12,false,0.298998,-0.420959,0.502808,0.693237,0.901991,-0.463142,-0.12781,-18.893454,-68.500026,18.227592
1784931464.8043,15:17:44.804,13,false,0.298864,-0.420105,0.504272,0.692749,0.898573,-0.471443,-0.128298,-18.79857,-68.498883,18.214247
1784931464.8354,15:17:44.835,14,false,0.299366,-0.419006,0.506226,0.691772,0.880018,-0.439704,-0.130739,-18.787943,-68.542715,18.067653
1784931464.8665,15:17:44.866,15,false,0.301206,-0.417542,0.508423,0.690247,0.884413,-0.448005,-0.12781,-18.763425,-68.552257,17.950672
1784931464.8977,15:17:44.897,16,false,0.303098,-0.416199,0.509888,0.689148,0.886366,-0.453376,-0.13611,-18.726405,-68.590752,18.08465
1784931464.9288,15:17:44.928,17,false,0.305667,-0.41449,0.511475,0.687866,0.895644,-0.445075,-0.126833,-18.797764,-68.655306,18.055692
1784931464.9602,15:17:44.960,18,false,0.306499,-0.413879,0.511963,0.6875,0.891249,-0.456794,-0.129274,-18.772264,-68.548911,18.089445
1784931464.9915,15:17:44.991,19,false,0.30943,-0.411499,0.513916,0.686157,0.881971,-0.483162,-0.135622,-18.674545,-68.632603,18.149731
1784931465.0228,15:17:45.022,20,false,0.311502,-0.409546,0.51593,0.684875,0.863416,-0.508064,-0.140993,-18.571643,-68.543433,18.218942
1784931465.0542,15:17:45.054,21,false,0.316799,-0.405396,0.520569,0.681396,0.8766,-0.482673,-0.146365,-18.613617,-68.627672,18.161601
1784931465.0855,15:17:45.085,22,false,0.320515,-0.402954,0.523926,0.678528,0.894667,-0.455329,-0.130739,-18.546716,-68.613764,18.199717
1784931465.1169,15:17:45.116,23,false,0.324321,-0.400696,0.527405,0.675354,0.904921,-0.44947,-0.122927,-18.546321,-68.810601,18.323745
1784931465.1482,15:17:45.148,24,false,0.329407,-0.398254,0.531616,0.671021,0.874647,-0.416754,-0.105837,-18.48615,-68.927938,18.345647
1784931465.1793,15:17:45.179,25,false,0.332958,-0.396423,0.533691,0.668701,0.887831,-0.424079,-0.112673,-18.402088,-69.033542,18.470035
1784931465.2105,15:17:45.210,26,false,0.335687,-0.394775,0.535339,0.666992,0.891737,-0.444587,-0.118044,-18.490925,-69.113632,18.6418
1784931465.2416,15:17:45.241,27,false,0.33859,-0.393127,0.536621,0.665466,0.899062,-0.450935,-0.120974,-18.496109,-69.260482,18.72162
1784931465.2727,15:17:45.272,28,false,0.340353,-0.392029,0.537292,0.664673,0.884901,-0.448005,-0.116579,-18.635359,-69.407601,18.808411
1784931465.3039,15:17:45.303,29,false,0.342621,-0.390869,0.537903,0.663696,0.88246,-0.448005,-0.112184,-18.760684,-69.390469,18.961292
1784931465.3352,15:17:45.335,30,false,0.34325,-0.390564,0.538025,0.663452,0.883436,-0.427497,-0.125856,-18.679076,-69.554497,19.024116
1784931465.3666,15:17:45.366,31,false,0.344934,-0.389954,0.537842,0.663086,0.878553,-0.424567,-0.135134,-18.590676,-69.462861,18.990935
1784931465.3979,15:17:45.397,0,false,0.345775,-0.389465,0.537354,0.66333,0.87953,-0.432868,-0.120974,-18.780285,-69.380388,19.140518
1784931465.4292,15:17:45.429,1,false,0.347021,-0.387939,0.537354,0.663574,0.892714,-0.469978,-0.147829,-18.831302,-69.455701,19.275142
1784931465.4606,15:17:45.460,2,false,0.347307,-0.386169,0.538818,0.663269,0.901991,-0.46656,-0.131228,-18.742632,-69.613205,19.38135
1784931465.4919,15:17:45.491,3,false,0.347295,-0.385681,0.539551,0.662964,0.878553,-0.471443,-0.113649,-18.707692,-69.754959,19.432076
1784931465.5233,15:17:45.523,4,false,0.348004,-0.384705,0.541138,0.661865,0.886854,-0.471931,-0.110231,-18.661291,-69.792815,19.537545
1784931465.5544,15:17:45.554,5,false,0.349225,-0.384399,0.541687,0.66095,0.883436,-0.44947,-0.120974,-18.664392,-69.811931,19.572651
1784931465.5855,15:17:45.585,6,false,0.351479,-0.383606,0.542725,0.659363,0.8766,-0.424079,-0.115602,-18.786814,-69.799228,19.544432
1784931465.6167,15:17:45.616,7,false,0.352462,-0.382751,0.543579,0.65863,0.901991,-0.415778,-0.125856,-18.852132,-69.892473,19.548942
1784931465.6478,15:17:45.647,8,false,0.353181,-0.381836,0.544495,0.65802,0.893202,-0.428473,-0.122927,-18.76138,-70.0063,19.807216
1784931465.679,15:17:45.679,9,false,0.352738,-0.381042,0.54541,0.657959,0.904433,-0.438727,-0.116091,-18.649795,-70.048929,19.710679
1784931465.7103,15:17:45.710,10,false,0.35157,-0.381348,0.545288,0.658508,0.892714,-0.430915,-0.106325,-18.519461,-69.982619,19.967733
1784931465.7416,15:17:45.741,11,false,0.350709,-0.381348,0.545105,0.659119,0.865858,-0.428473,-0.114137,-18.372253,-69.997709,20.169174
1784931465.773,15:17:45.773,12,false,0.348686,-0.382019,0.54364,0.661011,0.890761,-0.434333,-0.124392,-18.254719,-70.145874,20.320564
1784931465.8043,15:17:45.804,13,false,0.346872,-0.382935,0.542297,0.662537,0.89662,-0.436774,-0.130251,-18.193801,-70.204454,20.352138
1784931465.8357,15:17:45.835,14,false,0.344343,-0.384094,0.540771,0.664429,0.872206,-0.471931,-0.112184,-18.243651,-70.287083,20.24597
1784931465.8668,15:17:45.866,15,false,0.343817,-0.384216,0.540344,0.664978,0.877577,-0.482673,-0.129763,-18.138978,-70.331542,20.38968
1784931465.8979,15:17:45.897,16,false,0.341957,-0.384705,0.539673,0.666199,0.87953,-0.467048,-0.125368,-18.149448,-70.43137,20.324619
1784931465.9291,15:17:45.929,17,false,0.341179,-0.384827,0.539551,0.666626,0.863905,-0.478279,-0.127321,-18.114011,-70.476354,20.340833
1784931465.9602,15:17:45.960,18,false,0.340422,-0.385315,0.539001,0.667175,0.880018,-0.462165,-0.120485,-18.216701,-70.501885,20.190934
1784931465.9914,15:17:45.991,19,false,0.340039,-0.385742,0.538635,0.667419,0.88246,-0.46949,-0.125856,-18.084815,-70.674402,20.160701
1784931466.0225,15:17:46.022,20,false,0.339835,-0.385925,0.53833,0.667664,0.886854,-0.461677,-0.128298,-18.175472,-70.695083,20.043769
1784931466.0536,15:17:46.053,21,false,0.339249,-0.386719,0.537903,0.667847,0.878065,-0.467048,-0.121462,-18.122478,-70.698742,20.028253
1784931466.0848,15:17:46.084,22,false,0.338932,-0.387146,0.53772,0.667908,0.874159,-0.451423,-0.112184,-18.044876,-70.687081,19.969427
1784931466.1161,15:17:46.116,23,false,0.338799,-0.38739,0.537476,0.66803,0.888808,-0.450446,-0.121462,-18.259157,-70.721447,20.140791
1784931466.1474,15:17:46.147,24,false,0.338346,-0.388,0.536865,0.668396,0.884413,-0.46949,-0.119509,-18.25761,-70.707516,20.070712
1784931466.1788,15:17:46.178,25,false,0.338097,-0.388367,0.536377,0.668701,0.879042,-0.470466,-0.126833,-18.34594,-70.635162,19.947825
1784931466.2101,15:17:46.210,26,false,0.33868,-0.389038,0.535522,0.668701,0.884413,-0.463142,-0.124392,-18.574976,-70.614905,19.941903
1784931466.2413,15:17:46.241,27,false,0.338691,-0.389343,0.535217,0.668762,0.887831,-0.472419,-0.128298,-18.541847,-70.462089,19.846851
1784931466.2724,15:17:46.272,28,false,0.339096,-0.389954,0.534363,0.668884,0.889296,-0.454841,-0.129274,-18.482124,-70.45914,19.895888
1784931466.3035,15:17:46.303,29,false,0.339853,-0.390381,0.533569,0.668884,0.8766,-0.450935,-0.12488,-18.488188,-70.426577,19.850299
1784931466.3349,15:17:46.334,30,false,0.340068,-0.391296,0.532532,0.669067,0.874647,-0.462654,-0.117556,-18.62823,-70.232779,19.85413
1784931466.366,15:17:46.366,31,false,0.342252,-0.393799,0.529663,0.668762,0.870741,-0.477302,-0.120974,-18.709406,-70.103222,19.902439
1784931466.3972,15:17:46.397,0,false,0.343847,-0.395508,0.527893,0.668335,0.901015,-0.495369,-0.12195,-18.573111,-70.001575,19.856195
1784931466.4283,15:17:46.428,1,false,0.35113,-0.402466,0.52002,0.666565,0.91371,-0.440192,-0.124392,-18.659799,-69.999815,19.859436
1784931466.4594,15:17:46.459,2,false,0.356218,-0.408203,0.513611,0.665344,0.908827,-0.417243,-0.135134,-18.872404,-69.938416,19.638046
1784931466.4908,15:17:46.490,3,false,0.362706,-0.41626,0.504578,0.663757,0.926894,-0.35816,-0.150759,-18.929163,-69.613988,19.528517
1784931466.5221,15:17:46.522,4,false,0.365674,-0.420166,0.499817,0.663269,0.930312,-0.305913,-0.149294,-19.174646,-69.247233,19.280404
1784931466.5535,15:17:46.553,5,false,0.367644,-0.422852,0.496338,0.663086,0.940566,-0.305425,-0.147341,-19.530165,-69.081646,19.221593
1784931466.5848,15:17:46.584,6,false,0.369914,-0.424866,0.49292,0.663086,0.902968,-0.258549,-0.157595,-19.655732,-68.827941,19.138757
1784931466.6159,15:17:46.615,7,false,0.368994,-0.423828,0.492859,0.664307,0.914687,-0.248295,-0.157107,-19.753789,-68.509883,18.97448
1784931466.6473,15:17:46.647,8,false,0.366288,-0.421082,0.494263,0.666504,0.903456,-0.305913,-0.169802,-19.856994,-68.238585,18.871493
1784931466.6786,15:17:46.678,9,false,0.361046,-0.416321,0.497192,0.670166,0.904433,-0.340093,-0.180545,-19.99474,-68.024324,18.704036
1784931466.7098,15:17:46.709,10,false,0.357113,-0.412964,0.499695,0.672485,0.91957,-0.354742,-0.171756,-19.849543,-68.02589,18.628093
1784931466.7409,15:17:46.740,11,false,0.350576,-0.407837,0.50415,0.67572,0.914687,-0.414313,-0.152712,-19.868403,-68.027299,18.529837
1784931466.772,15:17:46.772,12,false,0.348845,-0.406189,0.505615,0.676514,0.907362,-0.438727,-0.142947,-19.870424,-68.043521,18.486268
1784931466.8032,15:17:46.803,13,false,0.344333,-0.400818,0.510193,0.678589,0.889296,-0.469978,-0.161013,-19.782519,-68.102982,18.402195
1784931466.8343,15:17:46.834,14,false,0.342214,-0.397644,0.512634,0.679688,0.885389,-0.495369,-0.165896,-19.628636,-68.126589,18.326529
1784931466.8657,15:17:46.865,15,false,0.340835,-0.394592,0.515015,0.680359,0.898085,-0.492927,-0.167361,-19.639679,-68.222605,18.333198
1784931466.897,15:17:46.897,16,false,0.341236,-0.393738,0.515564,0.680237,0.898085,-0.481697,-0.160525,-19.544942,-68.219296,18.354155
1784931466.9283,15:17:46.928,17,false,0.341979,-0.39386,0.515381,0.679932,0.897597,-0.461677,-0.154177,-19.534447,-68.365857,18.373016
1784931466.9597,15:17:46.959,18,false,0.344166,-0.39563,0.513855,0.678955,0.902968,-0.437751,-0.157595,-19.405371,-68.363177,18.375037
1784931466.991,15:17:46.991,19,false,0.34555,-0.397339,0.512573,0.678223,0.901503,-0.420661,-0.168826,-19.363972,-68.435534,18.406763
1784931467.0223,15:17:47.022,20,false,0.347755,-0.399719,0.510437,0.677307,0.886366,-0.398688,-0.156619,-19.281851,-68.24644,18.255871
1784931467.0537,15:17:47.053,21,false,0.349153,-0.401245,0.50885,0.67688,0.905898,-0.385016,-0.160037,-19.207942,-68.285609,18.149976
1784931467.0848,15:17:47.084,22,false,0.350313,-0.402832,0.507202,0.676575,0.907362,-0.368414,-0.180545,-19.20124,-68.305907,18.084577
1784931467.116,15:17:47.116,23,false,0.351419,-0.404602,0.505432,0.67627,0.908827,-0.357671,-0.16492,-19.135392,-68.309222,18.070581
1784931467.1471,15:17:47.147,24,false,0.351027,-0.405701,0.504578,0.676453,0.910292,-0.37232,-0.169314,-19.315391,-68.222483,18.04303
1784931467.1782,15:17:47.178,25,false,0.349995,-0.406311,0.504395,0.676758,0.906874,-0.357183,-0.171267,-19.327851,-68.069648,18.048142
1784931467.2096,15:17:47.209,26,false,0.347389,-0.406189,0.50531,0.67749,0.902968,-0.389899,-0.170291,-19.309158,-68.186311,17.918158
1784931467.2409,15:17:47.240,27,false,0.344922,-0.405396,0.506653,0.678223,0.91078,-0.404059,-0.161501,-19.292333,-68.14177,17.905849
