Timestamp,Local time,Counter,Interpolated,Accelerometer X,Accelerometer Y,Accelerometer Z,Magnetometer X,Magnetometer Y,Magnetometer Z,Quaternion 0,Quaternion 1,Quaternion 2,Quaternion 3
1784152444.172,14:54:04.172,9,false,0.283152,-0.59082,0.20874,0.726074,0.973404,0.028931,-0.205203,-25.474823,-47.813691,12.065158
1784152444.2032,14:54:04.203,10,false,0.28307,-0.590881,0.208679,0.726074,0.963638,0.021607,-0.212039,-25.305001,-47.817551,12.114765
1784152444.2343,14:54:04.234,11,false,0.28307,-0.590881,0.208679,0.726074,0.978775,0.031861,-0.206668,-25.361516,-47.910748,12.114549
1784152444.2654,14:54:04.265,12,false,0.282926,-0.591003,0.20874,0.726013,0.973892,0.032349,-0.208621,-25.397425,-47.860041,12.159217
1784152444.2968,14:54:04.296,13,false,0.283083,-0.591003,0.20874,0.725952,0.97438,0.041627,-0.219364,-25.489559,-47.87422,12.259234
1784152444.3279,14:54:04.327,14,false,0.283038,-0.591003,0.208801,0.725952,0.984634,0.041138,-0.216434,-25.437894,-47.901935,12.154848
1784152444.3593,14:54:04.359,15,false,0.283194,-0.591003,0.208801,0.725891,0.982193,0.036744,-0.216922,-25.645612,-47.852109,12.165578
1784152444.3906,14:54:04.390,16,false,0.283149,-0.591003,0.208862,0.725891,0.980728,0.018189,-0.20032,-25.638157,-47.867082,12.160282
1784152444.4219,14:54:04.421,17,false,0.283171,-0.591003,0.209045,0.72583,0.969986,0.025025,-0.210086,-25.556679,-47.955326,12.185422
1784152444.4533,14:54:04.453,18,false,0.283558,-0.590881,0.20929,0.725708,0.981216,0.029908,-0.217899,-25.677749,-47.97493,12.193095
1784152444.4844,14:54:04.484,19,false,0.283402,-0.590881,0.20929,0.725769,0.960708,0.021118,-0.205692,-25.682035,-47.992574,12.304678
1784152444.5156,14:54:04.515,20,false,0.283245,-0.590881,0.20929,0.72583,0.979263,0.026978,-0.214481,-25.745707,-47.948638,12.240609
1784152444.5469,14:54:04.546,21,false,0.283171,-0.59082,0.209351,0.725891,0.971939,0.025025,-0.219852,-25.758151,-47.804419,12.257717
1784152444.578,14:54:04.578,22,false,0.282866,-0.590881,0.209167,0.726013,0.963149,0.027466,-0.215457,-25.754397,-47.689576,12.258161
1784152444.6092,14:54:04.609,23,false,0.282977,-0.590881,0.209229,0.725952,0.970962,0.027466,-0.217411,-25.751018,-47.735755,12.25856
1784152444.6403,14:54:04.640,24,false,0.283014,-0.59082,0.209351,0.725952,0.969986,0.024048,-0.209598,-25.8377,-47.582917,12.378549
1784152444.6715,14:54:04.671,25,false,0.283089,-0.590698,0.209595,0.725952,0.965103,0.02356,-0.214969,-25.736268,-47.624808,12.307094
1784152444.7026,14:54:04.702,26,false,0.282738,-0.590759,0.209473,0.726074,0.975845,0.021607,-0.205203,-25.764609,-47.602695,12.22783
1784152444.7339,14:54:04.733,27,false,0.282627,-0.590759,0.209412,0.726135,0.97731,0.029419,-0.209598,-25.864886,-47.582793,12.26117
1784152444.7653,14:54:04.765,28,false,0.282081,-0.590881,0.209167,0.726318,0.975357,0.034302,-0.211063,-25.775689,-47.534974,12.23136
1784152444.7966,14:54:04.796,29,false,0.282081,-0.590881,0.209167,0.726318,0.976822,0.026001,-0.199832,-25.785135,-47.731198,12.174624
1784152444.828,14:54:04.828,30,false,0.282318,-0.59082,0.209656,0.726135,0.977798,0.013794,-0.205203,-25.718866,-47.758261,12.123561
1784152444.8591,14:54:04.859,31,false,0.282475,-0.59082,0.209656,0.726074,0.976333,0.038209,-0.210575,-25.823717,-47.767665,11.987882
1784152444.8902,14:54:04.890,0,false,0.282384,-0.59082,0.209778,0.726074,0.973892,0.013306,-0.213504,-25.82836,-47.74622,12.030262
1784152444.9214,14:54:04.921,1,false,0.28236,-0.59082,0.210022,0.726013,0.975357,0.017212,-0.217411,-25.742816,-47.756827,12.083359
1784152444.9525,14:54:04.952,2,false,0.282729,-0.590576,0.210632,0.725891,0.97731,0.02063,-0.210575,-25.755549,-47.811235,12.041423
1784152444.9837,14:54:04.983,3,false,0.283716,-0.589844,0.212402,0.725586,0.982681,0.002564,-0.213993,-25.737101,-47.725618,12.123311
1784152445.0148,14:54:05.014,4,false,0.285335,-0.588928,0.214844,0.724976,0.985611,-0.029664,-0.232059,-25.69059,-47.693424,12.241871
1784152445.0459,14:54:05.045,5,false,0.288637,-0.587891,0.218994,0.723267,0.992935,-0.032593,-0.233036,-25.783315,-47.754172,12.124269
1784152445.0771,14:54:05.077,6,false,0.295129,-0.58667,0.226746,0.719238,0.97145,0.010376,-0.218387,-25.791998,-47.808846,12.197872
1784152445.1084,14:54:05.108,7,false,0.300665,-0.585815,0.232239,0.715881,0.969009,0.011841,-0.210086,-25.784859,-47.947775,12.353838
1784152445.1398,14:54:05.139,8,false,0.306502,-0.584778,0.237671,0.712463,0.978775,0.015259,-0.192996,-26.017695,-47.953181,12.434393
1784152445.1711,14:54:05.171,9,false,0.315288,-0.583252,0.2453,0.707275,0.965103,0.02356,-0.188602,-25.928171,-47.958046,12.476984
1784152445.2024,14:54:05.202,10,false,0.320879,-0.582336,0.250183,0.703796,0.979751,0.02649,-0.197391,-25.997138,-48.067101,12.694762
1784152445.2338,14:54:05.233,11,false,0.329098,-0.581177,0.257324,0.698364,0.982681,0.032837,-0.186648,-25.954531,-48.284882,12.711316
1784152445.2651,14:54:05.265,12,false,0.331824,-0.580811,0.259766,0.696472,0.983169,0.024537,-0.194949,-25.946092,-48.66033,12.860799
1784152445.2963,14:54:05.296,13,false,0.339266,-0.579956,0.267273,0.690735,0.975357,0.045045,-0.177859,-26.013267,-48.699157,12.995334
1784152445.3274,14:54:05.327,14,false,0.344018,-0.579468,0.272278,0.686829,0.985122,0.041627,-0.181277,-26.05877,-48.823825,13.026693
1784152445.3585,14:54:05.358,15,false,0.350449,-0.578796,0.279663,0.681152,0.976333,0.026978,-0.169558,-26.084769,-48.995841,13.324085
1784152445.3897,14:54:05.389,16,false,0.354733,-0.578308,0.284424,0.677368,0.975357,0.035279,-0.15491,-26.123122,-49.240378,13.472106
1784152445.4208,14:54:05.420,17,false,0.358386,-0.577942,0.288391,0.674072,0.973404,0.032837,-0.160769,-26.337086,-49.310923,13.605326
1784152445.452,14:54:05.452,18,false,0.363918,-0.577148,0.293945,0.669373,0.964614,0.044068,-0.144656,-26.484792,-49.538906,13.844854
1784152445.4833,14:54:05.483,19,false,0.36714,-0.576599,0.296692,0.66687,0.963638,0.034791,-0.142214,-26.797173,-49.744091,14.06043
1784152445.5146,14:54:05.514,20,false,0.3701,-0.576172,0.298767,0.664673,0.979263,0.053834,-0.139284,-26.943732,-49.883896,14.269402
1784152445.546,14:54:05.546,21,false,0.374018,-0.5755,0.300598,0.662231,0.971939,0.03772,-0.146609,-27.075635,-50.039627,14.532246
1784152445.5773,14:54:05.577,22,false,0.375907,-0.575073,0.301208,0.661255,1.002213,0.042603,-0.145632,-27.239209,-50.299417,14.694036
1784152445.6087,14:54:05.608,23,false,0.378117,-0.57428,0.301697,0.660461,0.977798,0.047486,-0.137331,-27.386426,-50.383689,14.914417
1784152445.64,14:54:05.640,24,false,0.378395,-0.574097,0.301697,0.660461,0.97731,0.044556,-0.14905,-27.369382,-50.339903,15.082851
1784152445.6711,14:54:05.671,25,false,0.379272,-0.573242,0.301819,0.660645,0.985611,0.039673,-0.153933,-27.443766,-50.360311,15.383981
1784152445.7023,14:54:05.702,26,false,0.379733,-0.572571,0.302246,0.660767,0.99147,0.033326,-0.160769,-27.555573,-50.483355,15.550321
1784152445.7334,14:54:05.733,27,false,0.379987,-0.571533,0.303223,0.661072,0.990005,0.033814,-0.169558,-27.626292,-50.549234,15.714981
1784152445.7646,14:54:05.764,28,false,0.380124,-0.570374,0.304565,0.661377,0.979263,0.024048,-0.157839,-27.674985,-50.698247,15.713636
1784152445.7957,14:54:05.795,29,false,0.380019,-0.570068,0.304871,0.66156,0.990005,0.031861,-0.161257,-27.688901,-50.907128,15.772241
1784152445.827,14:54:05.827,30,false,0.380082,-0.569214,0.305725,0.661865,0.963149,0.021118,-0.155398,-27.731333,-51.095122,15.899755
1784152445.8584,14:54:05.858,31,false,0.380593,-0.569031,0.305298,0.661926,0.978286,0.021118,-0.176394,-27.60503,-51.129731,15.924794
1784152445.8897,14:54:05.889,0,false,0.382914,-0.569275,0.302856,0.661499,0.97145,-0.001343,-0.158328,-27.566126,-51.28051,15.94733
1784152445.9211,14:54:05.921,1,false,0.384968,-0.570007,0.299927,0.661011,0.992447,0.018189,-0.167117,-27.381574,-51.341442,16.012473
1784152445.9524,14:54:05.952,2,false,0.387705,-0.57074,0.296875,0.660156,0.997818,0.028931,-0.174929,-27.320154,-51.396281,15.996333
1784152445.9837,14:54:05.983,3,false,0.391265,-0.571777,0.29248,0.659119,1.003189,0.0636,-0.172,-27.339646,-51.370867,16.086484
1784152446.0151,14:54:06.015,4,false,0.393649,-0.572144,0.290344,0.658325,0.985122,0.068971,-0.18323,-27.387096,-51.288178,16.107804
1784152446.0464,14:54:06.046,5,false,0.395781,-0.572327,0.288879,0.657532,0.982681,0.071901,-0.172488,-27.250354,-51.348343,16.037269
1784152446.0776,14:54:06.077,6,false,0.397846,-0.572021,0.288452,0.656738,0.978775,0.080201,-0.182254,-27.381503,-51.088461,16.033603
1784152446.1087,14:54:06.108,7,false,0.39862,-0.571533,0.289185,0.656372,0.975357,0.096803,-0.178347,-27.305136,-51.063921,16.060212
1784152446.1398,14:54:06.139,8,false,0.398803,-0.570374,0.291077,0.656433,0.98024,0.097292,-0.172488,-27.281268,-50.862389,15.979482
1784152446.171,14:54:06.171,9,false,0.398761,-0.569763,0.292053,0.656555,0.974868,0.086061,-0.176883,-27.454186,-50.890364,16.071318
1784152446.2021,14:54:06.202,10,false,0.398214,-0.567383,0.295898,0.657227,0.988052,0.083619,-0.178836,-27.340644,-50.960403,16.064248
1784152446.2335,14:54:06.233,11,false,0.397003,-0.565735,0.298767,0.658081,0.974868,0.067506,-0.177859,-27.477717,-50.933715,16.117699
1784152446.2648,14:54:06.264,12,false,0.394877,-0.562866,0.303467,0.659668,0.985122,0.05481,-0.187137,-27.526314,-50.879788,16.091036
1784152446.2961,14:54:06.296,13,false,0.393577,-0.560974,0.306519,0.660645,0.990005,0.009888,-0.184695,-27.599958,-50.980792,16.141809
1784152446.3275,14:54:06.327,14,false,0.392467,-0.559509,0.308899,0.661438,0.979263,0.010864,-0.180789,-27.412023,-51.026834,16.142643
1784152446.3588,14:54:06.358,15,false,0.391917,-0.558167,0.310974,0.661926,0.993912,0.000122,-0.186648,-27.541958,-51.29258,16.008809
1784152446.3902,14:54:06.390,16,false,0.392743,-0.557922,0.311279,0.661499,0.993423,-0.004273,-0.180301,-27.494408,-51.247628,15.903312
1784152446.4213,14:54:06.421,17,false,0.393681,-0.55835,0.310364,0.661011,0.97438,0.025025,-0.178836,-27.376843,-51.35671,15.778458
1784152446.4525,14:54:06.452,18,false,0.395912,-0.559326,0.308228,0.659851,0.979263,0.041138,-0.181765,-27.271035,-51.424976,15.800673
1784152446.4836,14:54:06.483,19,false,0.39749,-0.56012,0.30658,0.658997,0.980728,0.045533,-0.18323,-27.355254,-51.516323,15.790759
1784152446.5147,14:54:06.514,20,false,0.399484,-0.561157,0.304443,0.657898,0.97438,0.058228,-0.185672,-27.356281,-51.493858,15.781836
1784152446.5459,14:54:06.545,21,false,0.400089,-0.561646,0.303406,0.657593,0.979751,0.062135,-0.176883,-27.357206,-51.428778,15.728945
1784152446.5772,14:54:06.577,22,false,0.400449,-0.561768,0.303101,0.65741,0.97731,0.075807,-0.180789,-27.372992,-51.325345,15.741157
1784152446.6086,14:54:06.608,23,false,0.399788,-0.561584,0.30365,0.657715,0.966567,0.068971,-0.189578,-27.357292,-51.112624,15.826918
1784152446.6399,14:54:06.639,24,false,0.398912,-0.560974,0.304871,0.658203,0.974868,0.069459,-0.186648,-27.492701,-51.115576,15.859241
1784152446.6712,14:54:06.671,25,false,0.396924,-0.559631,0.307678,0.659241,0.97438,0.039673,-0.175906,-27.539799,-51.222909,15.708886
1784152446.7026,14:54:06.702,26,false,0.396134,-0.559082,0.308777,0.659668,0.986099,0.027466,-0.185183,-27.522372,-51.259693,15.663289
1784152446.7339,14:54:06.733,27,false,0.394371,-0.557373,0.31189,0.660706,0.9944,0.016236,-0.18323,-27.402011,-51.337661,15.726929
1784152446.7651,14:54:06.765,28,false,0.393521,-0.556396,0.313538,0.661255,0.98024,0.007446,-0.178347,-27.263778,-51.392878,15.84402
1784152446.7962,14:54:06.796,29,false,0.392775,-0.555481,0.315063,0.661743,0.983658,0.002075,-0.18616,-27.244046,-51.562204,15.755002
1784152446.8273,14:54:06.827,30,false,0.392508,-0.55542,0.315247,0.661865,0.989517,0.002075,-0.180789,-27.271148,-51.624874,15.764609
1784152446.8585,14:54:06.858,31,false,0.39312,-0.55542,0.315125,0.66156,0.985611,0.003052,-0.184207,-27.220771,-51.756046,15.803163
1784152446.8896,14:54:06.889,0,false,0.394524,-0.555542,0.314819,0.660767,0.974868,0.00647,-0.177371,-27.070754,-51.844194,15.837862
1784152446.9208,14:54:06.920,1,false,0.395279,-0.555786,0.314209,0.6604,0.984146,0.038209,-0.186648,-27.145094,-51.863711,15.824229
1784152446.9519,14:54:06.951,2,false,0.396063,-0.555908,0.313904,0.659973,0.976333,0.025025,-0.177859,-27.226953,-51.896231,15.856821
1784152446.9832,14:54:06.983,3,false,0.39688,-0.555908,0.314026,0.659424,0.99147,0.035767,-0.175418,-27.360441,-51.985314,15.8712
1784152447.0146,14:54:07.014,4,false,0.397263,-0.555786,0.31427,0.65918,0.975845,0.039185,-0.173953,-27.345996,-52.050535,15.869187
1784152447.0459,14:54:07.045,5,false,0.397107,-0.555725,0.314575,0.65918,0.978775,0.028443,-0.184207,-27.407765,-51.959695,15.822514
1784152447.0773,14:54:07.077,6,false,0.39717,-0.555542,0.314819,0.65918,0.974868,0.021118,-0.182254,-27.388587,-52.057385,15.930047
1784152447.1086,14:54:07.108,7,false,0.39705,-0.554932,0.315918,0.659241,0.978775,0.025025,-0.178347,-27.386282,-51.980814,15.967011
1784152447.1397,14:54:07.139,8,false,0.396812,-0.554504,0.316711,0.659363,0.993423,0.014771,-0.178836,-27.39916,-52.046485,15.910555
1784152447.1711,14:54:07.171,9,false,0.396546,-0.553772,0.317688,0.659668,0.973892,0.010376,-0.185672,-27.306074,-52.03082,15.934515
1784152447.2022,14:54:07.202,10,false,0.396523,-0.553406,0.318481,0.659607,0.988052,0.013794,-0.183719,-27.207343,-51.986813,15.866355
1784152447.2334,14:54:07.233,11,false,0.396611,-0.553345,0.318604,0.659546,0.988052,0.020142,-0.172488,-27.223162,-52.021976,15.984457
1784152447.2645,14:54:07.264,12,false,0.396942,-0.553223,0.318909,0.659302,0.966567,0.022583,-0.190066,-27.222445,-52.008762,16.001027
1784152447.2956,14:54:07.295,13,false,0.396946,-0.553223,0.319031,0.659241,0.975845,0.021118,-0.179324,-27.102169,-52.071638,15.836493
1784152447.3268,14:54:07.326,14,false,0.39722,-0.553101,0.319153,0.659119,0.980728,0.022095,-0.18323,-27.143459,-52.053457,15.942628
1784152447.3581,14:54:07.358,15,false,0.397563,-0.55304,0.319336,0.658875,0.984634,0.03772,-0.180301,-27.240435,-52.126817,15.978333
1784152447.3895,14:54:07.389,16,false,0.397843,-0.552917,0.319702,0.65863,0.981704,0.02356,-0.18323,-27.148267,-52.118072,16.010469
1784152447.4208,14:54:07.420,17,false,0.397928,-0.552856,0.319702,0.65863,0.986587,0.022583,-0.181765,-27.110178,-52.125156,15.844991
1784152447.4521,14:54:07.452,18,false,0.398018,-0.552795,0.319946,0.658508,0.995377,0.02356,-0.178347,-27.075898,-52.176392,15.77083
1784152447.4835,14:54:07.483,19,false,0.398125,-0.552612,0.320129,0.658508,0.986587,0.016724,-0.178836,-27.045046,-52.282321,15.629315
1784152447.5148,14:54:07.514,20,false,0.398339,-0.552246,0.320496,0.658508,0.973404,0.020142,-0.182254,-27.002325,-52.213164,15.591676
1784152447.546,14:54:07.546,21,false,0.398619,-0.551941,0.320923,0.658386,0.978286,0.0177,-0.176394,-27.188184,-52.150923,15.632569
1784152447.5771,14:54:07.577,22,false,0.399547,-0.551392,0.321838,0.657837,0.973404,0.014282,-0.179324,-27.325549,-52.169675,15.594604
1784152447.6082,14:54:07.608,23,false,0.399666,-0.55127,0.321899,0.657837,0.97731,0.004517,-0.192996,-27.165055,-52.141691,15.620251
1784152447.6394,14:54:07.639,24,false,0.400194,-0.550781,0.322205,0.657776,0.972427,0.006958,-0.182742,-27.229964,-52.206228,15.628379
1784152447.6705,14:54:07.670,25,false,0.400718,-0.550476,0.322449,0.657593,0.975845,0.014282,-0.176883,-27.213613,-52.219449,15.770279
1784152447.7017,14:54:07.701,26,false,0.401211,-0.549866,0.322876,0.657593,0.97438,0.023072,-0.187625,-27.019451,-52.216395,15.778358
1784152447.733,14:54:07.733,27,false,0.401819,-0.549316,0.323303,0.657471,0.990982,0.016724,-0.190066,-27.039105,-52.288415,15.78563
1784152447.7643,14:54:07.764,28,false,0.402291,-0.548828,0.323669,0.65741,0.995865,0.007935,-0.187625,-27.116609,-52.33828,15.732359
1784152447.7957,14:54:07.795,29,false,0.402827,-0.548218,0.323914,0.657471,0.97731,0.012329,-0.18616,-27.081686,-52.398112,15.639553
1784152447.827,14:54:07.827,30,false,0.403493,-0.547913,0.324097,0.657227,0.982681,0.010376,-0.190066,-27.11007,-52.511776,15.60089
1784152447.8584,14:54:07.858,31,false,0.403694,-0.547729,0.32428,0.657166,0.984146,0.018189,-0.202762,-27.060847,-52.494443,15.506277
1784152447.8895,14:54:07.889,0,false,0.404242,-0.54718,0.324524,0.657166,0.985611,0.018189,-0.192996,-26.956731,-52.613428,15.495895
1784152447.9206,14:54:07.920,1,false,0.404529,-0.54657,0.325317,0.657104,0.998795,0.025025,-0.193973,-26.997611,-52.585929,15.44169
1784152447.9518,14:54:07.951,2,false,0.404781,-0.545654,0.326538,0.657104,0.976333,0.016724,-0.182254,-26.944679,-52.546227,15.377951
1784152447.9829,14:54:07.982,3,false,0.40493,-0.545288,0.326965,0.657104,0.977798,0.002564,-0.198367,-26.897041,-52.435726,15.380402
1784152448.0141,14:54:08.014,4,false,0.40567,-0.544739,0.327332,0.656921,0.979751,0.007935,-0.192508,-26.913983,-52.39609,15.367653
1784152448.0452,14:54:08.045,5,false,0.40685,-0.544189,0.327271,0.656677,0.981216,0.016724,-0.197879,-26.974091,-52.480049,15.341226
1784152448.0765,14:54:08.076,6,false,0.407782,-0.544006,0.326904,0.656433,0.982193,0.024048,-0.192996,-26.923512,-52.421027,15.422118
1784152448.1077,14:54:08.107,7,false,0.409736,-0.543457,0.326599,0.655823,0.97731,0.016236,-0.191043,-26.863037,-52.45763,15.509875
1784152448.139,14:54:08.139,8,false,0.410694,-0.543213,0.326538,0.655457,0.983169,0.022583,-0.20032,-26.808609,-52.490573,15.484179
1784152448.1704,14:54:08.170,9,false,0.4135,-0.542297,0.326477,0.65448,0.983169,0.02063,-0.205203,-26.759624,-52.594991,15.461053
1784152448.2017,14:54:08.201,10,false,0.414765,-0.541626,0.326721,0.654114,0.99733,0.017212,-0.201297,-26.820215,-52.569336,15.515009
1784152448.233,14:54:08.233,11,false,0.417263,-0.540405,0.327393,0.653198,0.972915,0.026978,-0.207645,-26.844839,-52.471478,15.593477
1784152448.2644,14:54:08.264,12,false,0.418558,-0.539734,0.327942,0.652649,0.980728,0.022095,-0.20618,-26.822139,-52.428267,15.529513
1784152448.2955,14:54:08.295,13,false,0.419849,-0.539246,0.32843,0.651978,0.989029,0.038209,-0.205203,-26.786755,-52.658546,15.591577
1784152448.3267,14:54:08.326,14,false,0.422213,-0.538574,0.329163,0.650635,0.970474,0.02356,-0.197879,-26.814725,-52.626536,15.602573
1784152448.3578,14:54:08.357,15,false,0.423933,-0.538513,0.329102,0.649597,0.969009,0.030884,-0.208621,-26.735221,-52.627635,15.806869
1784152448.3889,14:54:08.388,16,false,0.426289,-0.538269,0.329346,0.648132,0.980728,0.027466,-0.208621,-26.813205,-52.658531,15.886058
1784152448.4203,14:54:08.420,17,false,0.429821,-0.538025,0.32959,0.645874,0.976333,0.032837,-0.196414,-26.763761,-52.671384,15.897513
1784152448.4514,14:54:08.451,18,false,0.43204,-0.537964,0.329895,0.644287,0.978775,0.033326,-0.210086,-26.79403,-52.63809,15.773238
1784152448.4826,14:54:08.482,19,false,0.434763,-0.53772,0.331116,0.642029,0.98024,0.039185,-0.208133,-26.611919,-52.593172,15.73616
1784152448.5139,14:54:08.513,20,false,0.435781,-0.537537,0.331848,0.641113,0.959243,0.012818,-0.193973,-26.672326,-52.522838,15.927098
1784152448.5452,14:54:08.545,21,false,0.439329,-0.537048,0.333252,0.638367,0.97731,0.017212,-0.193973,-26.741646,-52.399722,15.829772
1784152448.5766,14:54:08.576,22,false,0.442188,-0.536865,0.333618,0.636353,0.965103,0.030884,-0.187137,-26.729265,-52.363686,15.816948
1784152448.6079,14:54:08.607,23,false,0.447561,-0.536499,0.333313,0.633057,0.983169,0.069459,-0.196902,-26.852707,-52.271439,15.925037
1784152448.6393,14:54:08.639,24,false,0.451249,-0.536255,0.33313,0.630737,0.98024,0.078737,-0.20618,-26.769405,-52.188417,15.947549
1784152448.6704,14:54:08.670,25,false,0.454521,-0.536072,0.33313,0.62854,0.972915,0.087526,-0.203738,-26.739294,-52.158558,15.937901
1784152448.7016,14:54:08.701,26,false,0.458808,-0.535461,0.333862,0.625549,0.978775,0.07776,-0.198367,-26.742103,-51.982147,15.929218
1784152448.7327,14:54:08.732,27,false,0.461587,-0.53479,0.334534,0.623718,0.973892,0.092409,-0.199344,-26.729676,-51.83833,16.011126
1784152448.7638,14:54:08.763,28,false,0.465138,-0.533691,0.335571,0.62146,0.970962,0.085573,-0.193973,-26.733446,-51.798619,15.920352
1784152448.795,14:54:08.795,29,false,0.466949,-0.532837,0.33667,0.620239,0.973892,0.099733,-0.196902,-26.886378,-51.837648,15.943331
1784152448.8261,14:54:08.826,30,false,0.46854,-0.53186,0.338135,0.61908,0.966079,0.086549,-0.198367,-27.053923,-51.678374,16.053736
1784152448.8573,14:54:08.857,31,false,0.470732,-0.530273,0.340698,0.617371,0.963149,0.081666,-0.195926,-27.085084,-51.744381,16.123193
1784152448.8886,14:54:08.888,0,false,0.472461,-0.529053,0.342407,0.61615,0.966079,0.082155,-0.200809,-27.202852,-51.609387,16.230565
1784152448.9199,14:54:08.919,1,false,0.473698,-0.528015,0.343506,0.615479,0.970962,0.07483,-0.20618,-27.234073,-51.637432,16.222524
1784152448.9513,14:54:08.951,2,false,0.475154,-0.526794,0.344788,0.614685,0.970474,0.072877,-0.204715,-27.307034,-51.767348,16.439594
1784152448.9826,14:54:08.982,3,false,0.476517,-0.525879,0.345825,0.613831,0.975357,0.067994,-0.20032,-27.447469,-51.704827,16.515326
1784152449.014,14:54:09.014,4,false,0.478274,-0.524536,0.347168,0.612854,0.980728,0.067994,-0.211063,-27.49909,-51.648558,16.628347
1784152449.0453,14:54:09.045,5,false,0.478812,-0.524109,0.347717,0.612488,0.973404,0.07483,-0.22034,-27.650226,-51.702593,16.730065
1784152449.0766,14:54:09.076,6,false,0.479816,-0.523132,0.348877,0.611877,0.973892,0.079225,-0.216922,-27.71148,-51.721317,16.746843
1784152449.1078,14:54:09.107,7,false,0.480336,-0.5224,0.349792,0.611572,0.979751,0.071412,-0.216922,-27.691839,-51.872753,16.761943
1784152449.1389,14:54:09.138,8,false,0.481149,-0.521301,0.350952,0.611206,0.976333,0.067506,-0.219364,-27.808746,-51.919322,16.865256
1784152449.1701,14:54:09.170,9,false,0.481652,-0.520569,0.351563,0.611084,0.98854,0.079713,-0.217411,-27.82424,-52.050957,16.838606
1784152449.2012,14:54:09.201,10,false,0.482008,-0.519836,0.352051,0.611145,0.970474,0.06067,-0.211063,-27.912953,-52.064752,16.874438
1784152449.2325,14:54:09.232,11,false,0.482373,-0.519043,0.352722,0.611145,0.965103,0.05774,-0.217899,-28.007749,-52.062214,16.861824
1784152449.2639,14:54:09.263,12,false,0.482623,-0.51886,0.352966,0.610962,0.978286,0.05774,-0.212039,-27.958481,-52.000114,16.970103
1784152449.2952,14:54:09.295,13,false,0.48295,-0.518677,0.35321,0.610718,0.977798,0.061158,-0.214969,-28.063678,-52.093762,16.932969
1784152449.3266,14:54:09.326,14,false,0.483176,-0.519165,0.353027,0.610229,0.975357,0.074342,-0.217411,-28.128448,-52.073369,16.959364
1784152449.3579,14:54:09.357,15,false,0.483269,-0.519592,0.352905,0.609863,0.975845,0.086061,-0.213504,-28.141879,-52.055015,16.923304
1784152449.3892,14:54:09.389,16,false,0.483076,-0.520081,0.352661,0.609741,0.98024,0.076295,-0.204715,-28.004429,-51.963727,16.845988
1784152449.4204,14:54:09.420,17,false,0.483031,-0.520081,0.352722,0.609741,0.975845,0.083131,-0.204227,-27.985401,-52.075968,16.940897
1784152449.4515,14:54:09.451,18,false,0.483159,-0.519897,0.353027,0.609619,0.967056,0.069947,-0.210575,-27.983229,-52.266708,16.966499
1784152449.4827,14:54:09.482,19,false,0.482761,-0.519653,0.353088,0.610107,0.967056,0.062135,-0.217411,-27.966321,-52.318744,17.079264
1784152449.5138,14:54:09.513,20,false,0.482317,-0.519409,0.35321,0.610596,0.977798,0.074342,-0.215457,-27.981011,-52.216037,16.941491
1784152449.5449,14:54:09.544,21,false,0.481875,-0.519226,0.353027,0.611206,0.972427,0.07483,-0.216434,-27.934416,-52.288093,16.907218
1784152449.5761,14:54:09.576,22,false,0.481764,-0.519226,0.352966,0.611328,0.970962,0.063111,-0.215946,-27.952297,-52.293128,16.996003
1784152449.6074,14:54:09.607,23,false,0.481173,-0.519531,0.352478,0.611816,0.981704,0.07776,-0.221317,-27.803897,-52.432244,16.88151
1784152449.6388,14:54:09.638,24,false,0.480647,-0.519958,0.351929,0.612183,0.980728,0.07483,-0.213504,-27.775014,-52.303234,16.778466
1784152449.6701,14:54:09.670,25,false,0.479591,-0.520935,0.351074,0.612671,0.98024,0.07776,-0.208621,-27.778927,-52.306755,16.880127
1784152449.7014,14:54:09.701,26,false,0.479084,-0.521545,0.350647,0.612793,0.969986,0.075319,-0.211063,-27.797403,-52.339832,16.986575
1784152449.7328,14:54:09.732,27,false,0.47813,-0.522339,0.349915,0.613281,0.968521,0.077272,-0.20618,-27.679447,-52.309785,17.037517
1784152449.7641,14:54:09.764,28,false,0.476577,-0.523376,0.349304,0.613953,0.976822,0.079713,-0.202274,-27.737778,-52.26779,16.918873
1784152449.7955,14:54:09.795,29,false,0.475691,-0.523804,0.349121,0.61438,0.973404,0.067506,-0.193484,-27.715507,-52.364578,16.886862
1784152449.8266,14:54:09.826,30,false,0.474665,-0.524231,0.348694,0.615051,0.967544,0.073365,-0.198367,-27.60574,-52.287196,16.768329
1784152449.8577,14:54:09.857,31,false,0.473145,-0.524841,0.3479,0.61615,0.965591,0.063111,-0.192996,-27.596673,-52.17269,16.676603
1784152449.8889,14:54:09.888,0,false,0.472427,-0.525085,0.347534,0.616699,0.974868,0.060182,-0.186648,-27.588512,-52.174312,16.773496
1784152449.92,14:54:09.920,1,false,0.471293,-0.525208,0.347046,0.617737,0.978286,0.072389,-0.18909,-27.730706,-52.280448,16.756023
1784152449.9514,14:54:09.951,2,false,0.470983,-0.525208,0.346924,0.618042,0.97145,0.066529,-0.208133,-27.679235,-52.121756,16.695436
1784152449.9825,14:54:09.982,3,false,0.470082,-0.524841,0.346741,0.619141,0.975845,0.067994,-0.208621,-27.573095,-52.068655,16.655861
1784152450.0138,14:54:10.013,4,false,0.469435,-0.524475,0.346863,0.619873,0.981704,0.057252,-0.20618,-27.447662,-52.095634,16.620243
1784152450.0452,14:54:10.045,5,false,0.468696,-0.523987,0.34729,0.620605,0.986099,0.055787,-0.220829,-27.529172,-52.179731,16.543326
1784152450.0765,14:54:10.076,6,false,0.468323,-0.52356,0.348328,0.620667,0.981216,0.029908,-0.196414,-27.527761,-52.105879,16.608685
1784152450.1079,14:54:10.107,7,false,0.467703,-0.523132,0.349365,0.620911,0.967544,0.013794,-0.205203,-27.5564,-52.099228,16.577786
1784152450.139,14:54:10.139,8,false,0.468853,-0.522827,0.349365,0.6203,0.944594,0.053834,-0.20325,-27.507405,-52.048381,16.624745
1784152450.1701,14:54:10.170,9,false,0.471955,-0.52301,0.34729,0.618958,0.953384,0.07776,-0.212528,-27.508171,-52.107295,16.681962
1784152450.2013,14:54:10.201,10,false,0.477849,-0.524048,0.342957,0.615967,0.966079,0.083619,-0.213504,-27.493907,-52.05564,16.613827
1784152450.2324,14:54:10.232,11,false,0.481991,-0.525208,0.339417,0.613708,0.975357,0.096803,-0.218875,-27.421254,-52.068967,16.672136
1784152450.2636,14:54:10.263,12,false,0.486028,-0.526123,0.336304,0.61145,0.984634,0.102174,-0.224247,-27.355866,-51.901515,16.59003
1784152450.2947,14:54:10.294,13,false,0.491113,-0.526855,0.332397,0.608887,0.985122,0.1178,-0.2262,-27.416648,-51.631177,16.590903
1784152450.3258,14:54:10.325,14,false,0.493325,-0.526672,0.33075,0.608154,0.981704,0.12903,-0.238407,-27.336767,-51.597227,16.457105
1784152450.3572,14:54:10.357,15,false,0.494675,-0.526306,0.329651,0.607971,0.990005,0.116823,-0.226688,-27.399459,-51.476949,16.35164
1784152450.3885,14:54:10.388,16,false,0.495729,-0.52478,0.329712,0.608398,0.987564,0.128054,-0.24036,-27.455881,-51.323837,16.256722
1784152450.4199,14:54:10.419,17,false,0.495306,-0.523804,0.330322,0.609253,0.965103,0.128542,-0.242802,-27.491708,-51.021544,16.126434
1784152450.4512,14:54:10.451,18,false,0.493974,-0.521729,0.332886,0.610718,0.981216,0.132448,-0.238407,-27.523951,-50.943881,16.039082
1784152450.4825,14:54:10.482,19,false,0.493084,-0.520996,0.334229,0.611328,0.982681,0.10071,-0.255497,-27.493155,-50.993614,16.09505
1784152450.5139,14:54:10.513,20,false,0.48937,-0.51886,0.339172,0.613403,0.977798,0.092409,-0.228153,-27.600024,-50.843974,15.951022
1784152450.545,14:54:10.545,21,false,0.486545,-0.517761,0.342468,0.614746,0.973404,0.082155,-0.232547,-27.44199,-50.828929,15.896165
1784152450.5762,14:54:10.576,22,false,0.483354,-0.516541,0.346069,0.616272,0.928969,0.074342,-0.219364,-27.210036,-50.979881,15.83184
1784152450.6073,14:54:10.607,23,false,0.482478,-0.516663,0.34613,0.616821,0.950454,0.068482,-0.222782,-27.120908,-50.936291,15.744041
1784152450.6385,14:54:10.638,24,false,0.482589,-0.51709,0.345337,0.616821,0.953384,0.075319,-0.226688,-27.085555,-51.031645,15.784651
1784152450.6696,14:54:10.669,25,false,0.484092,-0.517761,0.343201,0.616272,0.970474,0.070924,-0.244755,-27.307953,-51.087556,15.70157
1784152450.7007,14:54:10.700,26,false,0.485387,-0.518066,0.341675,0.615845,0.966567,0.081178,-0.228641,-27.38848,-51.182737,15.761382
1784152450.7319,14:54:10.731,27,false,0.486965,-0.518066,0.340637,0.615173,0.983658,0.067018,-0.243778,-27.386185,-51.223539,15.785305
1784152450.7632,14:54:10.763,28,false,0.488987,-0.517151,0.340454,0.614441,0.995377,0.077272,-0.251102,-27.369165,-51.140629,15.821789
1784152450.7945,14:54:10.794,29,false,0.489727,-0.516418,0.340942,0.614197,0.973404,0.078248,-0.246708,-27.413663,-51.080965,15.839671
1784152450.8259,14:54:10.825,30,false,0.490644,-0.515747,0.342285,0.613281,1.000259,0.090455,-0.260868,-27.334081,-50.997359,15.855765
1784152450.8572,14:54:10.857,31,false,0.49106,-0.515442,0.343567,0.612488,0.996353,0.088991,-0.248173,-27.202641,-50.966975,15.855296
1784152450.8886,14:54:10.888,0,false,0.491558,-0.514954,0.345215,0.611572,1.001724,0.081666,-0.25452,-26.979668,-50.909722,15.854874
1784152450.9197,14:54:10.919,1,false,0.492264,-0.514404,0.347717,0.610046,0.969009,0.088991,-0.221317,-26.943485,-51.022687,15.899355
1784152450.9509,14:54:10.950,2,false,0.492483,-0.514587,0.34906,0.608948,0.976333,0.100221,-0.217411,-27.000644,-51.06454,15.894527
1784152450.982,14:54:10.982,3,false,0.492207,-0.515625,0.350891,0.607239,0.955825,0.092409,-0.195926,-27.111902,-50.937715,15.830366
1784152451.0131,14:54:11.013,4,false,0.492056,-0.516113,0.35144,0.606628,0.950942,0.072877,-0.193484,-27.182126,-51.077788,16.026836
1784152451.0443,14:54:11.044,5,false,0.491037,-0.517456,0.352783,0.60553,0.949477,0.067994,-0.199832,-27.185512,-51.114131,15.904583
1784152451.0754,14:54:11.075,6,false,0.490588,-0.517822,0.353394,0.605225,0.959243,0.056275,-0.211551,-27.113791,-50.997301,15.899232
1784152451.1066,14:54:11.106,7,false,0.490578,-0.5177,0.354004,0.60498,0.946059,0.053834,-0.20911,-27.049242,-51.116461,15.999093
1784152451.1379,14:54:11.137,8,false,0.491231,-0.517639,0.354126,0.604431,0.965591,0.069459,-0.214481,-27.230409,-51.089121,15.969337
1784152451.1692,14:54:11.169,9,false,0.492442,-0.518127,0.353394,0.603455,0.959243,0.080201,-0.196902,-27.378506,-51.019654,15.987418
1784152451.2006,14:54:11.200,10,false,0.495256,-0.518555,0.351746,0.601746,0.956802,0.100221,-0.197879,-27.362254,-51.031902,16.07846
1784152451.2319,14:54:11.231,11,false,0.496917,-0.518677,0.350159,0.601196,0.95729,0.103151,-0.191043,-27.302767,-51.192464,16.01086
1784152451.2633,14:54:11.263,12,false,0.498389,-0.518799,0.348511,0.60083,0.941665,0.096803,-0.210575,-27.593166,-51.217339,15.920112
1784152451.2944,14:54:11.294,13,false,0.500192,-0.518982,0.345642,0.60083,0.968032,0.084108,-0.210575,-27.704987,-51.164957,15.987977
1784152451.3257,14:54:11.325,14,false,0.501055,-0.518982,0.344177,0.600952,0.966079,0.101198,-0.216922,-27.641133,-51.177629,16.093917
1784152451.357,14:54:11.357,15,false,0.501249,-0.518005,0.343445,0.602051,0.965103,0.080201,-0.221805,-27.598619,-51.129219,16.099541
1784152451.3881,14:54:11.388,16,false,0.501356,-0.517578,0.343506,0.602295,0.95729,0.093385,-0.234012,-27.694941,-51.145464,16.05974
1784152451.4193,14:54:11.419,17,false,0.501074,-0.516479,0.344177,0.603088,0.950942,0.075319,-0.2262,-27.676954,-51.070363,16.068781
1784152451.4504,14:54:11.450,18,false,0.500747,-0.515686,0.345093,0.603516,0.96022,0.079713,-0.229618,-27.735534,-51.107448,16.04701
1784152451.4815,14:54:11.481,19,false,0.500361,-0.514648,0.346558,0.603882,0.964126,0.08069,-0.223758,-27.758349,-51.066055,16.057324
1784152451.5129,14:54:11.512,20,false,0.500113,-0.514038,0.34729,0.604187,0.959243,0.078737,-0.2262,-27.719067,-51.043756,15.976883
1784152451.5442,14:54:11.544,21,false,0.500063,-0.513489,0.347961,0.604309,0.983169,0.088991,-0.235966,-27.803344,-51.023686,16.009164
1784152451.5756,14:54:11.575,22,false,0.499991,-0.512695,0.349548,0.604126,0.993912,0.093385,-0.225223,-27.804424,-51.080393,15.903631
1784152451.6069,14:54:11.606,23,false,0.49958,-0.511963,0.350891,0.604309,0.970962,0.07776,-0.237919,-27.670812,-51.011798,16.03296
1784152451.6382,14:54:11.638,24,false,0.498765,-0.51062,0.352844,0.60498,0.983169,0.082643,-0.236454,-27.789822,-50.965017,15.954956
1784152451.6696,14:54:11.669,25,false,0.498281,-0.509644,0.354309,0.605347,0.984634,0.071901,-0.231083,-27.762347,-51.012637,16.019337
1784152451.7007,14:54:11.700,26,false,0.497547,-0.508789,0.355835,0.605774,0.987564,0.064576,-0.237919,-27.812388,-51.055494,15.927741
1784152451.7319,14:54:11.731,27,false,0.496433,-0.507813,0.358154,0.60614,0.979751,0.06067,-0.229618,-27.842472,-51.10902,15.964936
1784152451.763,14:54:11.763,28,false,0.495726,-0.507568,0.359375,0.606201,0.981704,0.072389,-0.230594,-27.809731,-51.037563,16.028318
1784152451.7943,14:54:11.794,29,false,0.494885,-0.507813,0.360291,0.60614,0.983169,0.062623,-0.214969,-27.825126,-51.257374,16.085363
1784152451.8255,14:54:11.825,30,false,0.493364,-0.508423,0.361206,0.606323,0.981704,0.05774,-0.224735,-27.689444,-51.32062,16.091842
1784152451.8568,14:54:11.856,31,false,0.492595,-0.50885,0.36145,0.606445,0.978286,0.052369,-0.225223,-27.716868,-51.377541,16.067765
1784152451.8882,14:54:11.888,0,false,0.492042,-0.509399,0.361633,0.606323,0.963638,0.056764,-0.221805,-27.696688,-51.503539,16.150772
1784152451.9195,14:54:11.919,1,false,0.491928,-0.509583,0.361633,0.606262,0.976333,0.070436,-0.209598,-27.753295,-51.721614,16.15071
1784152451.9508,14:54:11.950,2,false,0.491626,-0.509888,0.361511,0.606323,0.98024,0.073854,-0.212039,-27.789288,-51.783297,16.240377
1784152451.9822,14:54:11.982,3,false,0.491432,-0.509888,0.361877,0.606262,0.979751,0.075807,-0.211551,-27.806727,-51.79395,16.231354
1784152452.0135,14:54:12.013,4,false,0.490721,-0.509644,0.362061,0.606934,0.961196,0.054322,-0.217411,-27.837377,-51.893261,16.357818
1784152452.0449,14:54:12.044,5,false,0.490532,-0.50946,0.361755,0.607422,0.969986,0.047974,-0.216922,-27.775238,-51.997595,16.307143
1784152452.0762,14:54:12.076,6,false,0.490769,-0.509216,0.361572,0.607544,0.979263,0.065553,-0.231571,-27.62959,-52.03168,16.246582
1784152452.1075,14:54:12.107,7,false,0.490539,-0.509277,0.361389,0.607788,0.965591,0.05774,-0.235477,-27.588231,-52.017495,16.341616
1784152452.1387,14:54:12.138,8,false,0.490557,-0.509216,0.36145,0.607788,0.965591,0.069459,-0.219852,-27.461284,-51.974821,16.382285
1784152452.1698,14:54:12.169,9,false,0.4906,-0.509277,0.361511,0.607666,0.963638,0.068482,-0.20911,-27.421801,-51.906506,16.269348
1784152452.201,14:54:12.201,10,false,0.490297,-0.509583,0.361389,0.607727,0.97731,0.062623,-0.221805,-27.610573,-51.874931,16.167705
1784152452.2321,14:54:12.232,11,false,0.490634,-0.509521,0.361633,0.607361,0.976822,0.073365,-0.218875,-27.645884,-51.981098,16.136042
1784152452.2632,14:54:12.263,12,false,0.490548,-0.50946,0.361938,0.6073,0.974868,0.059693,-0.208621,-27.528126,-51.92711,16.182314
1784152452.2946,14:54:12.294,13,false,0.490634,-0.509277,0.362183,0.607239,0.975357,0.050416,-0.220829,-27.496912,-52.057966,16.358544
1784152452.3259,14:54:12.325,14,false,0.490269,-0.508728,0.362732,0.607666,0.973892,0.060182,-0.226688,-27.453867,-52.205645,16.32275
1784152452.3573,14:54:12.357,15,false,0.490217,-0.50824,0.363281,0.607788,0.983658,0.048951,-0.219364,-27.445033,-52.263786,16.440075
1784152452.3886,14:54:12.388,16,false,0.490393,-0.508057,0.363708,0.607544,0.97438,0.045045,-0.20911,-27.437083,-52.390883,16.575574
1784152452.4199,14:54:12.419,17,false,0.491367,-0.507874,0.36377,0.606873,0.970962,0.038697,-0.216922,-27.504697,-52.385639,16.518078
1784152452.4513,14:54:12.451,18,false,0.491666,-0.507935,0.363586,0.606689,0.976333,0.053346,-0.217411,-27.655272,-52.515504,16.376608
1784152452.4824,14:54:12.482,19,false,0.493033,-0.50824,0.362732,0.605835,0.964614,0.054322,-0.209598,-27.820698,-52.54266,16.309101
1784152452.5136,14:54:12.513,20,false,0.494086,-0.508423,0.361755,0.605408,0.969009,0.054322,-0.213016,-27.715366,-52.611961,16.293205
1784152452.5447,14:54:12.544,21,false,0.496176,-0.508545,0.360046,0.604614,0.972427,0.072877,-0.213504,-27.530844,-52.704241,16.159269
1784152452.5758,14:54:12.575,22,false,0.497641,-0.508728,0.358582,0.604126,0.966567,0.077272,-0.224247,-27.559174,-52.891969,16.143403
1784152452.607,14:54:12.607,23,false,0.49901,-0.508911,0.357239,0.603638,0.968032,0.081178,-0.228153,-27.554763,-52.746893,16.039401
1784152452.6381,14:54:12.638,24,false,0.499987,-0.509277,0.355347,0.603638,0.977798,0.10071,-0.229618,-27.610609,-52.601372,15.960753
1784152452.6695,14:54:12.669,25,false,0.500241,-0.509338,0.354797,0.603699,0.965103,0.091432,-0.227665,-27.601055,-52.530217,16.024554
1784152452.7008,14:54:12.700,26,false,0.500173,-0.50946,0.354614,0.60376,0.981704,0.087037,-0.230106,-27.577503,-52.436271,15.992252
1784152452.7322,14:54:12.732,27,false,0.499747,-0.509521,0.354919,0.603882,0.97145,0.093385,-0.228153,-27.646028,-52.411535,15.978134
1784152452.7635,14:54:12.763,28,false,0.499048,-0.509521,0.355591,0.604065,0.980728,0.07776,-0.215457,-27.752563,-52.389272,15.995335
1784152452.7946,14:54:12.794,29,false,0.497891,-0.508911,0.357666,0.604309,0.969009,0.0636,-0.218387,-27.654044,-52.414097,16.010817
1784152452.8258,14:54:12.825,30,false,0.497317,-0.508667,0.358398,0.604553,0.972915,0.0636,-0.199832,-27.714916,-52.286901,16.069611
1784152452.857,14:54:12.857,31,false,0.495993,-0.507446,0.360413,0.605469,0.969497,0.068971,-0.210575,-27.814562,-52.321963,16.077665
1784152452.8882,14:54:12.888,0,false,0.49581,-0.506348,0.361694,0.605774,0.969009,0.051392,-0.215946,-27.754705,-52.488103,16.129775
1784152452.9193,14:54:12.919,1,false,0.495809,-0.505005,0.362549,0.606384,0.951431,0.050904,-0.219364,-27.775603,-52.532953,16.057043
1784152452.9504,14:54:12.950,2,false,0.496448,-0.503906,0.362488,0.606812,0.947524,0.059205,-0.226688,-27.67478,-52.752764,16.215892
1784152452.9816,14:54:12.981,3,false,0.497437,-0.502869,0.361755,0.6073,0.958267,0.069459,-0.231571,-27.643855,-52.636563,16.119595
1784152453.0127,14:54:13.012,4,false,0.499015,-0.501587,0.360229,0.607971,0.981216,0.067018,-0.257939,-27.586115,-52.606751,16.182466
1784152453.0441,14:54:13.044,5,false,0.500255,-0.500732,0.359802,0.60791,0.973404,0.064088,-0.258427,-27.414518,-52.550013,16.343726
1784152453.0754,14:54:13.075,6,false,0.501731,-0.499756,0.359619,0.607605,0.984146,0.064088,-0.261845,-27.304942,-52.424179,16.309415
1784152453.1067,14:54:13.106,7,false,0.502293,-0.499634,0.359314,0.607422,0.958755,0.084108,-0.262821,-27.296047,-52.505329,16.188811
1784152453.1381,14:54:13.138,8,false,0.502797,-0.499512,0.359192,0.607178,0.959243,0.083131,-0.244266,-27.24318,-52.518548,16.155037
1784152453.1694,14:54:13.169,9,false,0.502581,-0.499756,0.358948,0.6073,0.958755,0.092409,-0.251102,-27.165692,-52.410815,16.049871
1784152453.2008,14:54:13.200,10,false,0.501946,-0.499817,0.359131,0.607666,0.966079,0.079713,-0.244755,-27.185676,-52.478347,16.044945
1784152453.2319,14:54:13.231,11,false,0.501018,-0.499817,0.359497,0.608215,0.957778,0.069459,-0.24036,-27.098984,-52.539126,16.07042
1784152453.263,14:54:13.263,12,false,0.500338,-0.499084,0.36084,0.608582,0.958755,0.059205,-0.232547,-27.260223,-52.578873,16.048485
1784152453.2942,14:54:13.294,13,false,0.50014,-0.498352,0.361816,0.608765,0.968032,0.039673,-0.239384,-27.315616,-52.674461,16.118467
1784152453.3253,14:54:13.325,14,false,0.499918,-0.497253,0.36322,0.609009,0.976822,0.054322,-0.24622,-27.260792,-52.730583,16.121635
1784152453.3565,14:54:13.356,15,false,0.499776,-0.497009,0.363647,0.60907,0.97438,0.059205,-0.242313,-27.21145,-52.855861,16.124486
1784152453.3878,14:54:13.387,16,false,0.498792,-0.49646,0.364929,0.609558,0.970474,0.048951,-0.242313,-27.301627,-52.804119,16.082191
1784152453.4191,14:54:13.419,17,false,0.498016,-0.49646,0.365479,0.609863,0.972427,0.044068,-0.23743,-27.218295,-52.996813,16.193664
1784152453.4505,14:54:13.450,18,false,0.496931,-0.496887,0.365967,0.610107,0.960708,0.033814,-0.243778,-27.128341,-53.050607,16.144451
1784152453.4818,14:54:13.481,19,false,0.496537,-0.497131,0.366272,0.610046,0.968032,0.050416,-0.237919,-26.987568,-53.113976,16.21979
1784152453.5132,14:54:13.513,20,false,0.496276,-0.497437,0.366516,0.609863,0.964126,0.035767,-0.2262,-26.965549,-53.096238,16.317502
1784152453.5445,14:54:13.544,21,false,0.495708,-0.498047,0.36676,0.60968,0.967544,0.043091,-0.228641,-26.870962,-53.050366,16.225998
1784152453.5758,14:54:13.575,22,false,0.495157,-0.498535,0.366638,0.609802,0.97438,0.042115,-0.229129,-26.84565,-52.949267,16.173551
1784152453.6071,14:54:13.607,23,false,0.494985,-0.49884,0.36676,0.609619,0.967056,0.046509,-0.233524,-26.807915,-52.977908,16.171211
1784152453.6382,14:54:13.638,24,false,0.494673,-0.499268,0.367004,0.609375,0.976333,0.059205,-0.219364,-26.998261,-52.899007,16.169105
1784152453.6694,14:54:13.669,25,false,0.49438,-0.499573,0.367188,0.609253,0.971939,0.051881,-0.214481,-27.079849,-52.99249,16.122348
1784152453.7005,14:54:13.700,26,false,0.493384,-0.500244,0.367004,0.609619,0.973892,0.030884,-0.231083,-27.153279,-52.971947,16.035405
1784152453.7316,14:54:13.731,27,false,0.493139,-0.500427,0.366882,0.609741,0.960708,0.042115,-0.231083,-27.15955,-52.938504,15.942202
1784152453.7628,14:54:13.762,28,false,0.492325,-0.500916,0.367004,0.609924,0.966567,0.048463,-0.22327,-27.120333,-53.013083,15.962997
1784152453.7941,14:54:13.794,29,false,0.491954,-0.50116,0.367371,0.609802,0.970474,0.042603,-0.224247,-27.279437,-53.25965,16.161158
1784152453.8255,14:54:13.825,30,false,0.491799,-0.501282,0.367615,0.60968,0.968032,0.045533,-0.210086,-27.452539,-53.257252,16.160057
1784152453.8568,14:54:13.856,31,false,0.491319,-0.501648,0.367554,0.609802,0.972915,0.045533,-0.224735,-27.384022,-53.195279,16.263743
1784152453.8881,14:54:13.888,0,false,0.491425,-0.501648,0.367615,0.60968,0.972915,0.044556,-0.230106,-27.352265,-53.229227,16.416876
1784152453.9193,14:54:13.919,1,false,0.491652,-0.501587,0.368103,0.609253,0.966079,0.066041,-0.217899,-27.353592,-53.214918,16.524788
1784152453.9506,14:54:13.950,2,false,0.491679,-0.501648,0.368286,0.60907,0.961196,0.032349,-0.226688,-27.414601,-53.216993,16.457416
1784152453.982,14:54:13.982,3,false,0.491582,-0.501831,0.368469,0.608887,0.969009,0.049928,-0.219852,-27.260155,-53.099231,16.516413
1784152454.0131,14:54:14.013,4,false,0.491408,-0.502075,0.368469,0.608826,0.979751,0.035767,-0.216922,-27.166016,-53.023152,16.614371
1784152454.0442,14:54:14.044,5,false,0.491298,-0.502197,0.368652,0.608704,0.973892,0.037232,-0.218387,-27.15606,-53.10422,16.552995
1784152454.0754,14:54:14.075,6,false,0.491139,-0.502441,0.36853,0.608704,0.983169,0.051881,-0.227665,-27.162053,-53.117366,16.408033
1784152454.1065,14:54:14.106,7,false,0.490985,-0.502563,0.368469,0.608765,0.983658,0.052857,-0.229129,-27.092678,-53.099289,16.427106
1784152454.1377,14:54:14.137,8,false,0.490879,-0.502563,0.368408,0.608887,0.970474,0.030884,-0.231571,-27.209686,-53.08302,16.324641
1784152454.169,14:54:14.169,9,false,0.490467,-0.502686,0.368286,0.609192,0.973892,0.054322,-0.226688,-27.210316,-53.068378,16.232423
1784152454.2003,14:54:14.200,10,false,0.490462,-0.502747,0.368713,0.608887,0.966567,0.046998,-0.231571,-27.076299,-53.070154,16.179334
1784152454.2317,14:54:14.231,11,false,0.490046,-0.502808,0.369385,0.608765,0.976822,0.045045,-0.218875,-27.105222,-53.041844,16.161462
1784152454.263,14:54:14.263,12,false,0.489832,-0.502808,0.369568,0.608826,0.967056,0.046509,-0.215946,-27.101345,-53.046274,16.175284
1784152454.2942,14:54:14.294,13,false,0.489173,-0.502808,0.370239,0.608948,0.970474,0.032349,-0.212039,-27.142718,-53.139983,16.217632
1784152454.3253,14:54:14.325,14,false,0.48871,-0.502808,0.37085,0.608948,0.989029,0.040162,-0.212528,-27.164999,-53.254229,16.345468
1784152454.3564,14:54:14.356,15,false,0.487707,-0.503479,0.37146,0.608826,0.993912,0.036255,-0.186648,-27.304683,-53.312189,16.385752
1784152454.3876,14:54:14.387,16,false,0.486523,-0.503906,0.372131,0.609009,0.9944,0.017212,-0.192508,-27.221044,-53.379307,16.362192
1784152454.4187,14:54:14.418,17,false,0.484678,-0.50415,0.373108,0.60968,1.003189,0.013794,-0.201785,-27.160724,-53.320082,16.221357
1784152454.4499,14:54:14.449,18,false,0.482163,-0.503174,0.375977,0.610718,0.97731,-0.021363,-0.205692,-27.166251,-53.356503,16.289005
1784152454.481,14:54:14.481,19,false,0.481154,-0.501831,0.377869,0.61145,0.947524,-0.026246,-0.188113,-27.156271,-53.329467,16.409704
1784152454.5122,14:54:14.512,20,false,0.480961,-0.500488,0.378906,0.612061,0.942641,-0.005737,-0.192996,-26.997751,-53.379903,16.548241
1784152454.5435,14:54:14.543,21,false,0.482695,-0.49884,0.378479,0.612305,0.951919,0.018677,-0.222293,-27.034529,-53.500065,16.643016
1784152454.5748,14:54:14.574,22,false,0.484274,-0.498535,0.376465,0.612549,0.952407,0.030884,-0.222782,-26.903136,-53.548395,16.743268
1784152454.6062,14:54:14.606,23,false,0.487166,-0.498169,0.372803,0.612793,0.980728,0.054322,-0.242802,-26.859653,-53.711523,16.609187
1784152454.6375,14:54:14.637,24,false,0.488734,-0.498169,0.370239,0.613098,0.990005,0.052857,-0.255009,-26.700887,-53.559261,16.608144
1784152454.6687,14:54:14.668,25,false,0.490102,-0.498108,0.368103,0.613342,0.990494,0.046998,-0.256474,-26.707536,-53.601672,16.637114
1784152454.6998,14:54:14.699,26,false,0.491814,-0.498474,0.365723,0.613098,0.990494,0.06067,-0.256962,-26.788289,-53.430488,16.55851
1784152454.7309,14:54:14.730,27,false,0.49241,-0.498901,0.364746,0.612854,0.978286,0.061158,-0.245243,-26.905828,-53.485776,16.562535
1784152454.7621,14:54:14.762,28,false,0.4924,-0.499329,0.36438,0.612732,0.974868,0.065064,-0.228641,-26.877029,-53.445812,16.476435
1784152454.7932,14:54:14.793,29,false,0.492141,-0.499451,0.364563,0.612732,0.975845,0.04358,-0.236942,-26.761387,-53.394891,16.443806
1784152454.8244,14:54:14.824,30,false,0.491326,-0.49939,0.36554,0.612854,0.952407,0.052369,-0.224735,-26.986294,-53.349061,16.414441
1784152454.8555,14:54:14.855,31,false,0.490872,-0.499329,0.366028,0.612976,0.946059,0.034302,-0.229618,-27.039171,-53.412492,16.358104
1784152454.8866,14:54:14.886,0,false,0.490597,-0.499329,0.366089,0.613159,0.968521,0.039185,-0.236454,-27.16153,-53.439672,16.307401
1784152454.918,14:54:14.918,1,false,0.490876,-0.499146,0.366272,0.612976,0.971939,0.050904,-0.234012,-27.256699,-53.374411,16.306629
1784152454.9493,14:54:14.949,2,false,0.490958,-0.49884,0.366577,0.612976,0.960708,0.044068,-0.24036,-27.312444,-53.420353,16.096581
1784152454.9807,14:54:14.980,3,false,0.490806,-0.49884,0.366577,0.613098,0.968032,0.036255,-0.234501,-27.287845,-53.357023,16.116892
1784152455.012,14:54:15.012,4,false,0.490696,-0.498962,0.366455,0.613159,0.973892,0.039185,-0.229129,-27.131121,-53.210304,16.165079
1784152455.0433,14:54:15.043,5,false,0.490479,-0.499146,0.366394,0.61322,0.968521,0.041138,-0.230106,-27.079793,-53.197887,16.17854
1784152455.0745,14:54:15.074,6,false,0.489745,-0.499268,0.366699,0.613525,0.985122,0.035279,-0.230594,-27.153228,-53.261482,16.235516
1784152455.1058,14:54:15.105,7,false,0.489232,-0.498962,0.367493,0.613708,0.969497,0.030396,-0.229129,-27.21932,-53.243947,16.391472
1784152455.137,14:54:15.137,8,false,0.488579,-0.498596,0.368652,0.613831,0.965103,0.022095,-0.224247,-27.218987,-53.362751,16.472016
1784152455.1681,14:54:15.168,9,false,0.48855,-0.498474,0.368958,0.61377,0.973892,0.038209,-0.219364,-27.128964,-53.45472,16.350106
1784152455.1992,14:54:15.199,10,false,0.487501,-0.498657,0.36969,0.614014,0.969497,0.027466,-0.213504,-27.137667,-53.507585,16.150665
1784152455.2304,14:54:15.230,11,false,0.487224,-0.498596,0.370239,0.613953,0.974868,0.025025,-0.217411,-27.160453,-53.540209,16.165567
1784152455.2615,14:54:15.261,12,false,0.487067,-0.498657,0.370667,0.61377,0.963638,0.038209,-0.206668,-27.091238,-53.554617,16.208887
1784152455.2929,14:54:15.292,13,false,0.486772,-0.49884,0.370605,0.613892,0.968032,0.022583,-0.222293,-27.058852,-53.642354,16.203013
1784152455.3242,14:54:15.324,14,false,0.486632,-0.498901,0.370605,0.613953,0.97438,0.04065,-0.225711,-26.999796,-53.601686,16.167819
1784152455.3555,14:54:15.355,15,false,0.486136,-0.499207,0.370239,0.614319,0.977798,0.032349,-0.227176,-27.096185,-53.609947,16.091283
1784152455.3869,14:54:15.386,16,false,0.486089,-0.499268,0.370117,0.61438,0.972427,0.026001,-0.220829,-27.093212,-53.632335,16.082215
1784152455.4182,14:54:15.418,17,false,0.485965,-0.499329,0.369995,0.614502,0.977798,0.019165,-0.230106,-27.269982,-53.652484,16.044147
1784152455.4494,14:54:15.449,18,false,0.485637,-0.499512,0.370178,0.614502,0.963638,0.041138,-0.219852,-27.279537,-53.670619,16.069701
1784152455.4807,14:54:15.480,19,false,0.48535,-0.500122,0.369629,0.614563,0.958267,0.04065,-0.207156,-27.273182,-53.776663,16.182423
1784152455.5118,14:54:15.511,20,false,0.485396,-0.501038,0.36853,0.614441,0.976333,0.036744,-0.218875,-27.357186,-53.752472,16.059565
1784152455.543,14:54:15.543,21,false,0.485194,-0.50177,0.367493,0.614624,0.985611,0.030884,-0.225223,-27.298205,-53.745654,16.068623
1784152455.5741,14:54:15.574,22,false,0.485176,-0.502502,0.366821,0.614441,0.973404,0.039673,-0.218387,-27.200261,-53.649794,16.061822
1784152455.6053,14:54:15.605,23,false,0.485389,-0.503723,0.365784,0.613892,0.956802,0.028443,-0.208621,-27.082203,-53.653244,16.070654
1784152455.6364,14:54:15.636,24,false,0.48594,-0.504333,0.365234,0.613281,0.966079,0.046509,-0.222782,-27.020813,-53.551672,16.078604
1784152455.6677,14:54:15.667,25,false,0.486078,-0.505127,0.363953,0.613281,0.974868,0.041627,-0.226688,-27.040331,-53.490165,16.055851
1784152455.6991,14:54:15.699,26,false,0.486165,-0.505188,0.363647,0.613342,0.975845,0.038209,-0.223758,-27.072851,-53.524531,16.020419
1784152455.7304,14:54:15.730,27,false,0.486473,-0.504944,0.362854,0.61377,0.968521,0.046021,-0.240848,-26.877811,-53.450784,16.018438
1784152455.7618,14:54:15.761,28,false,0.487086,-0.504761,0.362183,0.613831,0.967544,0.034791,-0.251591,-26.926583,-53.414319,15.911978
1784152455.7931,14:54:15.793,29,false,0.488086,-0.505066,0.360718,0.613647,0.959243,0.036255,-0.242802,-26.895708,-53.381501,15.890934
1784152455.8242,14:54:15.824,30,false,0.488619,-0.505859,0.359192,0.613464,0.965103,0.064576,-0.2262,-26.838014,-53.322057,15.797225
1784152455.8554,14:54:15.855,31,false,0.489247,-0.507324,0.356995,0.613037,0.967544,0.078737,-0.231571,-26.83095,-53.133973,15.757748
1784152455.8865,14:54:15.886,0,false,0.48976,-0.509888,0.353882,0.612305,0.983658,0.066529,-0.220829,-26.929269,-53.099282,15.886711
1784152455.9177,14:54:15.917,1,false,0.489699,-0.51123,0.352661,0.611938,0.986099,0.069947,-0.24622,-26.808403,-52.933475,15.957916
1784152455.9488,14:54:15.948,2,false,0.489661,-0.512268,0.352478,0.611206,0.98024,0.061158,-0.22327,-26.923931,-52.933787,15.97714
1784152455.9799,14:54:15.979,3,false,0.489357,-0.513489,0.353027,0.610107,0.944594,0.073854,-0.215457,-26.968091,-52.694807,15.949579
1784152456.0111,14:54:16.011,4,false,0.489243,-0.514526,0.353149,0.609253,0.939223,0.064088,-0.219852,-27.06765,-52.569448,15.894867
1784152456.0422,14:54:16.042,5,false,0.489408,-0.516296,0.352966,0.607727,0.984146,0.059693,-0.234989,-27.112392,-52.381855,15.845626
1784152456.0736,14:54:16.073,6,false,0.489503,-0.517456,0.353027,0.606628,0.973404,0.076295,-0.22034,-27.227429,-52.36256,15.84617
1784152456.1049,14:54:16.104,7,false,0.490144,-0.518433,0.352905,0.605347,0.969497,0.07776,-0.213993,-27.256193,-52.120887,15.876568
1784152456.1362,14:54:16.136,8,false,0.49126,-0.520142,0.3526,0.603149,0.975845,0.069459,-0.218875,-27.28208,-52.097782,16.053465
1784152456.1676,14:54:16.167,9,false,0.492003,-0.521606,0.352112,0.601563,0.98024,0.073365,-0.213504,-27.305379,-52.106894,16.063133
1784152456.1988,14:54:16.198,10,false,0.493193,-0.524231,0.350708,0.599121,0.949477,0.089479,-0.20032,-27.356256,-51.980511,16.161558
1784152456.23,14:54:16.230,11,false,0.493915,-0.525085,0.349976,0.598206,0.964614,0.101198,-0.181765,-27.446906,-51.821904,16.205278
1784152456.2611,14:54:16.261,12,false,0.496224,-0.528259,0.347229,0.595093,0.99147,0.1178,-0.185183,-27.588307,-51.72402,16.214719
1784152456.2922,14:54:16.292,13,false,0.497296,-0.530518,0.345276,0.593323,0.967544,0.12903,-0.188602,-27.625845,-51.62097,16.357801
1784152456.3234,14:54:16.323,14,false,0.498867,-0.533813,0.342102,0.590881,0.987076,0.141238,-0.189578,-27.689536,-51.348779,16.516482
1784152456.3545,14:54:16.354,15,false,0.500207,-0.535645,0.340332,0.589111,0.95729,0.133425,-0.18616,-27.716951,-51.103808,16.52471
1784152456.3857,14:54:16.385,16,false,0.501433,-0.537476,0.338379,0.587524,0.948989,0.146609,-0.172488,-27.651901,-50.748748,16.651746
1784152456.4168,14:54:16.416,17,false,0.504014,-0.540039,0.335205,0.584778,0.975845,0.171023,-0.190066,-27.922341,-50.503964,16.736171
1784152456.4481,14:54:16.448,18,false,0.506463,-0.541199,0.333252,0.582703,0.975845,0.179324,-0.185183,-28.016198,-50.358428,16.871969
1784152456.4795,14:54:16.479,19,false,0.508434,-0.542236,0.331116,0.581238,0.962661,0.187625,-0.170535,-27.966085,-50.107814,16.874556
1784152456.5108,14:54:16.510,20,false,0.511116,-0.543579,0.327332,0.579773,0.961685,0.198367,-0.161257,-28.130337,-49.927124,16.9367
1784152456.5422,14:54:16.542,21,false,0.512868,-0.544189,0.324646,0.579163,0.950942,0.201297,-0.176394,-28.023949,-49.809364,16.91786
1784152456.5735,14:54:16.573,22,false,0.515879,-0.544617,0.319885,0.578735,0.941176,0.197879,-0.191531,-27.868384,-49.613657,16.841089
1784152456.6048,14:54:16.604,23,false,0.517065,-0.544617,0.318298,0.578552,0.950454,0.184695,-0.218387,-27.892868,-49.273028,16.83181
1784152456.6362,14:54:16.636,24,false,0.5212,-0.543762,0.314209,0.577881,0.975357,0.205692,-0.23743,-27.899949,-48.981416,16.763644
1784152456.6673,14:54:16.667,25,false,0.523565,-0.542969,0.312317,0.577515,0.978286,0.202762,-0.247196,-28.011,-48.718965,16.597618
1784152456.6985,14:54:16.698,26,false,0.526274,-0.541626,0.312012,0.576477,0.975845,0.208621,-0.237919,-28.140853,-48.393037,16.508009
1784152456.7296,14:54:16.729,27,false,0.52764,-0.540771,0.312988,0.5755,0.969986,0.210575,-0.22327,-28.123136,-48.069793,16.5769
1784152456.7608,14:54:16.760,28,false,0.528295,-0.540527,0.314209,0.574463,0.975357,0.215946,-0.217899,-28.122144,-47.913458,16.489363
1784152456.7921,14:54:16.792,29,false,0.52823,-0.540771,0.316895,0.572815,0.970474,0.208133,-0.199344,-28.19602,-47.74285,16.440488
1784152456.8234,14:54:16.823,30,false,0.527624,-0.540955,0.318909,0.572083,0.961685,0.188113,-0.179812,-28.247557,-47.559394,16.456316
1784152456.8548,14:54:16.854,31,false,0.526336,-0.540283,0.321289,0.572571,0.955337,0.18616,-0.187137,-28.234123,-47.454099,16.410745
1784152456.8861,14:54:16.886,0,false,0.525494,-0.539429,0.322144,0.573669,0.951431,0.163699,-0.207645,-28.281848,-47.449057,16.384686
1784152456.9175,14:54:16.917,1,false,0.525158,-0.538879,0.322632,0.574219,0.96022,0.165652,-0.218387,-28.27994,-47.444519,16.436001
1784152456.9488,14:54:16.948,2,false,0.524427,-0.538696,0.323364,0.574646,0.917739,0.152468,-0.213016,-28.278222,-47.260989,16.332647
1784152456.9801,14:54:16.980,3,false,0.524322,-0.538208,0.323914,0.57489,0.923598,0.162234,-0.213016,-28.231814,-47.335073,16.374212
1784152457.0115,14:54:17.011,4,false,0.524766,-0.537231,0.324707,0.574951,0.96022,0.182254,-0.208621,-28.264816,-47.147534,16.36676
1784152457.0426,14:54:17.042,5,false,0.524701,-0.535583,0.326233,0.575684,0.964126,0.188113,-0.193484,-28.219749,-47.128286,16.509591
1784152457.0738,14:54:17.073,6,false,0.524094,-0.534607,0.327515,0.576416,0.966567,0.179324,-0.19202,-28.22405,-47.200687,16.398877
1784152457.1049,14:54:17.104,7,false,0.52279,-0.533691,0.328186,0.578064,0.974868,0.19202,-0.205203,-28.257829,-47.206032,16.359051
1784152457.136,14:54:17.136,8,false,0.5226,-0.533264,0.32843,0.578491,0.981704,0.153445,-0.213993,-28.318138,-47.285612,16.397976
1784152457.1672,14:54:17.167,9,false,0.521907,-0.531738,0.329529,0.579895,0.965591,0.138308,-0.22327,-28.372415,-47.432003,16.388147
1784152457.1985,14:54:17.198,10,false,0.521919,-0.530396,0.330383,0.580627,0.967056,0.144656,-0.225223,-28.406311,-47.548801,16.364347
1784152457.2299,14:54:17.229,11,false,0.522402,-0.52887,0.331421,0.580994,0.956313,0.162234,-0.222782,-28.377002,-47.624012,16.43265
1784152457.2612,14:54:17.261,12,false,0.52281,-0.528198,0.331848,0.580994,0.964126,0.175418,-0.233524,-28.365578,-47.527209,16.329631
1784152457.2925,14:54:17.292,13,false,0.523018,-0.527771,0.332092,0.581055,0.95436,0.168093,-0.230594,-28.474927,-47.514856,16.281775
1784152457.3239,14:54:17.323,14,false,0.523723,-0.527283,0.332397,0.580688,0.961685,0.180789,-0.231083,-28.513526,-47.518692,16.283566
1784152457.3552,14:54:17.355,15,false,0.52398,-0.527527,0.332031,0.580444,0.962661,0.19202,-0.227176,-28.368818,-47.596914,16.225363
1784152457.3866,14:54:17.386,16,false,0.524266,-0.527588,0.332336,0.579956,0.951431,0.179812,-0.222293,-28.432982,-47.727128,16.292611
1784152457.4177,14:54:17.417,17,false,0.523331,-0.52771,0.332764,0.580444,0.951919,0.173953,-0.218875,-28.296329,-47.784506,16.188642
1784152457.449,14:54:17.449,18,false,0.52284,-0.527649,0.332886,0.580872,0.955825,0.171511,-0.229618,-28.278018,-47.955777,16.139931
1784152457.4804,14:54:17.480,19,false,0.522102,-0.527832,0.333008,0.581299,0.951431,0.171023,-0.204715,-28.321354,-48.154783,16.245629
1784152457.5115,14:54:17.511,20,false,0.521658,-0.527954,0.333191,0.581482,0.956802,0.161257,-0.222782,-28.450079,-48.169395,16.251035
1784152457.5429,14:54:17.542,21,false,0.520928,-0.527954,0.333374,0.582031,0.956802,0.153933,-0.220829,-28.40144,-48.167593,16.285808
1784152457.5742,14:54:17.574,22,false,0.520047,-0.527466,0.333496,0.583191,0.966079,0.152468,-0.2262,-28.312803,-48.270647,16.197473
1784152457.6055,14:54:17.605,23,false,0.519666,-0.526672,0.334167,0.583862,0.975357,0.15491,-0.219852,-28.412475,-48.318535,16.103018
1784152457.6369,14:54:17.636,24,false,0.518876,-0.52533,0.335266,0.585144,0.976333,0.148562,-0.234989,-28.367596,-48.556034,16.1825
1784152457.6682,14:54:17.668,25,false,0.518641,-0.524841,0.335754,0.58551,0.982681,0.140749,-0.235477,-28.401974,-48.620244,16.179265
1784152457.6994,14:54:17.699,26,false,0.51775,-0.523682,0.336914,0.58667,0.967056,0.142214,-0.229618,-28.313283,-48.573357,16.101584
1784152457.7305,14:54:17.730,27,false,0.517127,-0.523682,0.336914,0.587219,0.957778,0.136843,-0.218387,-28.218508,-48.620881,16.091487
1784152457.7616,14:54:17.761,28,false,0.516801,-0.523926,0.336609,0.587463,0.952895,0.136355,-0.228641,-28.073395,-48.753376,16.172122
1784152457.7928,14:54:17.792,29,false,0.516469,-0.524292,0.336121,0.587708,0.964614,0.150027,-0.214481,-28.062424,-48.767944,16.244694
1784152457.8239,14:54:17.823,30,false,0.515985,-0.524475,0.33551,0.588318,0.969497,0.155886,-0.208621,-27.992734,-48.79601,16.085701
1784152457.8551,14:54:17.855,31,false,0.516147,-0.523865,0.335144,0.588928,0.961685,0.148074,-0.229129,-28.049645,-48.821269,15.972515
1784152457.8862,14:54:17.886,0,false,0.516514,-0.52356,0.334412,0.589294,0.964614,0.143191,-0.238407,-28.041049,-48.858956,15.990278
1784152457.9173,14:54:17.917,1,false,0.516907,-0.523315,0.333862,0.589478,0.937758,0.143679,-0.236942,-27.958543,-48.862967,15.931496
1784152457.9487,14:54:17.948,2,false,0.517232,-0.52301,0.333191,0.589844,0.975357,0.149538,-0.238895,-27.959057,-48.896484,15.923454
1784152457.98,14:54:17.980,3,false,0.516767,-0.522888,0.33313,0.590393,1.002213,0.151492,-0.24622,-27.914658,-48.896741,15.871354
1784152458.0114,14:54:18.011,4,false,0.515943,-0.522827,0.333313,0.591064,0.980728,0.152468,-0.251102,-27.844791,-48.822204,15.824464
1784152458.0427,14:54:18.042,5,false,0.51578,-0.522949,0.333374,0.591064,0.969497,0.150515,-0.23743,-27.722096,-48.814936,15.916848
1784152458.0738,14:54:18.073,6,false,0.515745,-0.523987,0.333313,0.59021,0.969009,0.146609,-0.230106,-27.776162,-48.972887,15.910271
1784152458.1052,14:54:18.105,7,false,0.515234,-0.525085,0.33313,0.589783,0.95729,0.158328,-0.218875,-27.750053,-48.890735,15.859489
1784152458.1365,14:54:18.136,8,false,0.513951,-0.527161,0.33313,0.58905,0.95729,0.15198,-0.200809,-27.801324,-48.996245,15.933417
1784152458.1677,14:54:18.167,9,false,0.513322,-0.52832,0.333557,0.588318,0.959243,0.148074,-0.194949,-27.967098,-48.956619,16.059767
1784152458.1988,14:54:18.198,10,false,0.512952,-0.529358,0.333557,0.587708,0.951919,0.135378,-0.202762,-27.966757,-48.876094,16.143574
1784152458.2299,14:54:18.229,11,false,0.512973,-0.531006,0.332947,0.586548,0.968032,0.158816,-0.194949,-27.89168,-48.878391,16.114324
1784152458.2611,14:54:18.261,12,false,0.513554,-0.53241,0.331848,0.585388,0.978286,0.16321,-0.196414,-27.809157,-48.686058,16.028183
1784152458.2922,14:54:18.292,13,false,0.51457,-0.534546,0.330383,0.583374,0.985122,0.164675,-0.205203,-28.168548,-48.602681,16.115149
1784152458.3236,14:54:18.323,14,false,0.51476,-0.534973,0.330688,0.582642,0.956802,0.151003,-0.192996,-28.088247,-48.572504,16.253234
1784152458.3549,14:54:18.354,15,false,0.5145,-0.534485,0.331665,0.582764,0.947036,0.153445,-0.207645,-28.105698,-48.455621,16.242925
1784152458.3862,14:54:18.386,16,false,0.513609,-0.53302,0.332825,0.584229,0.939223,0.14905,-0.216922,-28.10645,-48.365381,16.114017
1784152458.4176,14:54:18.417,17,false,0.513841,-0.531677,0.333435,0.5849,0.933364,0.13196,-0.22327,-28.122081,-48.493518,16.162492
1784152458.4489,14:54:18.448,18,false,0.514582,-0.530701,0.333313,0.585205,0.947524,0.156374,-0.224735,-28.06138,-48.608842,16.086488
1784152458.4803,14:54:18.480,19,false,0.515514,-0.529602,0.333191,0.585449,0.945083,0.136355,-0.227665,-28.066564,-48.62291,16.152669
1784152458.5116,14:54:18.511,20,false,0.515907,-0.528931,0.333435,0.585571,0.948989,0.147097,-0.23743,-28.116092,-48.51594,16.137464
1784152458.5427,14:54:18.542,21,false,0.516093,-0.528198,0.333557,0.585999,0.962661,0.156863,-0.227665,-27.966266,-48.539299,16.019101
1784152458.5739,14:54:18.573,22,false,0.516095,-0.527954,0.333618,0.586182,0.95729,0.157351,-0.23743,-27.995916,-48.500506,16.077068
1784152458.605,14:54:18.605,23,false,0.515876,-0.527405,0.33429,0.586487,0.975357,0.157351,-0.215457,-27.947831,-48.465592,15.979699
1784152458.6362,14:54:18.636,24,false,0.515193,-0.527588,0.334412,0.586853,0.959243,0.146609,-0.220829,-27.889601,-48.449124,15.907021
1784152458.6673,14:54:18.667,25,false,0.514452,-0.527893,0.334534,0.587158,0.959243,0.150027,-0.211551,-27.837194,-48.434302,15.886472
1784152458.6986,14:54:18.698,26,false,0.513794,-0.52832,0.334229,0.587524,0.980728,0.142214,-0.218875,-27.849843,-48.480778,15.778255
1784152458.73,14:54:18.730,27,false,0.513212,-0.528564,0.333984,0.587952,0.984146,0.159792,-0.207645,-28.100488,-48.582422,15.725721
1784152458.7613,14:54:18.761,28,false,0.512704,-0.528503,0.333679,0.588623,0.971939,0.141726,-0.221317,-28.101762,-48.599132,15.902749
1784152458.7927,14:54:18.792,29,false,0.512598,-0.528198,0.333679,0.588989,0.948989,0.150027,-0.218875,-28.013185,-48.733802,15.897581
1784152458.8238,14:54:18.823,30,false,0.512765,-0.527832,0.333679,0.589172,0.958755,0.148074,-0.214969,-28.023188,-48.660605,16.012561
1784152458.855,14:54:18.855,31,false,0.513472,-0.527405,0.333374,0.589111,0.955825,0.153445,-0.230106,-28.151822,-48.774173,16.041274
1784152458.8861,14:54:18.886,0,false,0.514354,-0.5271,0.333252,0.588684,0.956313,0.151492,-0.224735,-28.118055,-48.726847,16.141884
1784152458.9172,14:54:18.917,1,false,0.51501,-0.5271,0.332886,0.588318,0.962661,0.149538,-0.217899,-28.132525,-48.848745,16.187572
1784152458.9484,14:54:18.948,2,false,0.515119,-0.5271,0.332825,0.588257,0.971939,0.156863,-0.219364,-28.175456,-48.719192,16.198784
1784152458.9795,14:54:18.979,3,false,0.515024,-0.527039,0.333069,0.588257,0.961685,0.161257,-0.231083,-28.169233,-48.752133,16.044382
1784152459.0107,14:54:19.010,4,false,0.514207,-0.527039,0.333252,0.588867,0.959243,0.147585,-0.214969,-28.088863,-48.632241,15.935328
1784152459.042,14:54:19.042,5,false,0.513955,-0.526917,0.333618,0.588989,0.964126,0.138796,-0.227176,-28.13616,-48.718739,16.046533
1784152459.0733,14:54:19.073,6,false,0.513399,-0.526855,0.333923,0.589355,0.961685,0.150027,-0.215946,-28.178728,-48.796586,16.071848
1784152459.1047,14:54:19.104,7,false,0.513492,-0.526794,0.333984,0.589294,0.965591,0.156374,-0.224247,-28.097408,-48.821788,16.139494
1784152459.136,14:54:19.136,8,false,0.513164,-0.526978,0.333984,0.589417,0.970474,0.141726,-0.208621,-28.113943,-48.829515,16.215328
1784152459.1674,14:54:19.167,9,false,0.512994,-0.526794,0.334534,0.589417,0.969986,0.143679,-0.218875,-28.009194,-48.896285,16.268626
1784152459.1987,14:54:19.198,10,false,0.513082,-0.526428,0.335083,0.589355,0.949966,0.137331,-0.219364,-28.094366,-49.031147,16.271732
1784152459.23,14:54:19.230,11,false,0.513148,-0.526306,0.335388,0.589233,0.966079,0.126589,-0.202762,-28.141113,-49.002985,16.274527
1784152459.2614,14:54:19.261,12,false,0.513263,-0.526184,0.33551,0.589172,0.963638,0.145632,-0.216922,-28.19814,-48.992593,16.306951
1784152459.2925,14:54:19.292,13,false,0.513781,-0.525757,0.335815,0.588928,0.971939,0.153445,-0.222293,-28.15974,-49.072963,16.306225
1784152459.3237,14:54:19.323,14,false,0.513776,-0.525635,0.335693,0.589111,0.957778,0.147097,-0.219364,-28.125181,-49.070526,16.245756
1784152459.3548,14:54:19.354,15,false,0.513943,-0.525452,0.33551,0.589233,0.968032,0.150027,-0.217899,-28.109031,-48.978611,16.281056
1784152459.3859,14:54:19.385,16,false,0.51396,-0.525513,0.335388,0.589233,0.968521,0.152956,-0.2262,-28.258988,-48.91084,16.223104
1784152459.4171,14:54:19.417,17,false,0.514093,-0.525452,0.335388,0.589172,0.955825,0.14612,-0.224735,-28.169643,-48.924616,16.230762
1784152459.4484,14:54:19.448,18,false,0.514165,-0.525146,0.335754,0.589172,0.963149,0.138308,-0.230106,-28.104185,-48.922061,16.267563
1784152459.4798,14:54:19.479,19,false,0.514078,-0.525085,0.335876,0.589233,0.958755,0.14612,-0.224247,-28.015366,-48.949669,16.225914
1784152459.5111,14:54:19.511,20,false,0.513946,-0.524902,0.336365,0.589233,0.967544,0.156374,-0.217899,-28.084967,-48.9147,16.263199
1784152459.5424,14:54:19.542,21,false,0.513616,-0.524902,0.336548,0.589417,0.95729,0.135866,-0.218875,-28.132654,-48.972952,16.23694
1784152459.5738,14:54:19.573,22,false,0.513169,-0.524536,0.337158,0.589783,0.969986,0.137819,-0.219852,-28.130711,-49.055286,16.10863
1784152459.6049,14:54:19.604,23,false,0.512815,-0.524353,0.337341,0.590149,0.954849,0.136355,-0.226688,-28.128962,-49.099479,16.202505
1784152459.6361,14:54:19.636,24,false,0.513012,-0.52417,0.337646,0.589966,0.971939,0.135378,-0.232547,-28.187203,-49.228975,16.197269
1784152459.6672,14:54:19.667,25,false,0.513104,-0.524109,0.337708,0.589905,0.968032,0.138796,-0.213504,-28.224667,-49.330569,16.207511
1784152459.6983,14:54:19.698,26,false,0.512656,-0.524292,0.337463,0.590271,0.958267,0.127077,-0.222293,-28.288291,-49.481818,15.977467
1784152459.7295,14:54:19.729,27,false,0.512564,-0.524353,0.337402,0.590332,0.966079,0.136355,-0.221805,-28.270784,-49.438496,15.979782
1784152459.7606,14:54:19.760,28,false,0.512348,-0.524475,0.337219,0.590515,0.969986,0.138308,-0.221805,-28.165305,-49.354645,15.996818
1784152459.7918,14:54:19.791,29,false,0.512123,-0.524597,0.337158,0.590637,0.965591,0.141726,-0.231083,-27.950743,-49.413763,16.012151
1784152459.8231,14:54:19.823,30,false,0.512175,-0.524536,0.33728,0.590576,0.949966,0.140261,-0.222293,-28.026806,-49.392201,16.175489
1784152459.8544,14:54:19.854,31,false,0.512445,-0.524292,0.337463,0.590454,0.953872,0.141238,-0.22034,-27.930771,-49.327933,16.158002
1784152459.8858,14:54:19.885,0,false,0.512353,-0.524353,0.337402,0.590515,0.975845,0.150027,-0.226688,-27.993878,-49.344861,16.17217
1784152459.9171,14:54:19.917,1,false,0.512216,-0.524231,0.337585,0.590637,0.955825,0.137331,-0.215946,-27.916089,-49.404958,16.169968
1784152459.9485,14:54:19.948,2,false,0.512042,-0.524048,0.337708,0.590881,0.966079,0.130495,-0.222293,-27.875987,-49.533815,16.093217
1784152459.9796,14:54:19.979,3,false,0.511738,-0.524109,0.337646,0.591125,0.960708,0.120729,-0.222293,-27.839895,-49.500247,16.069002
1784152460.0107,14:54:20.010,4,false,0.511738,-0.524109,0.337646,0.591125,0.960708,0.137819,-0.225711,-27.792458,-49.499944,16.092071
1784152460.0419,14:54:20.041,5,false,0.511705,-0.52417,0.337708,0.591064,0.963638,0.135378,-0.220829,-27.824535,-49.45481,15.978248
1784152460.073,14:54:20.073,6,false,0.511568,-0.524353,0.337524,0.591125,0.971939,0.131472,-0.216922,-27.718819,-49.399235,15.995438
1784152460.1042,14:54:20.104,7,false,0.511431,-0.524536,0.337341,0.591187,0.955337,0.150027,-0.222782,-27.773213,-49.379125,16.055771
1784152460.1353,14:54:20.135,8,false,0.511692,-0.524536,0.337158,0.591064,0.969497,0.137819,-0.234012,-27.867029,-49.405888,16.035301
1784152460.1664,14:54:20.166,9,false,0.511957,-0.524719,0.336792,0.590881,0.965103,0.132937,-0.216434,-27.74211,-49.415021,16.061739
1784152460.1978,14:54:20.197,10,false,0.512131,-0.524902,0.33667,0.590637,0.957778,0.147585,-0.219852,-27.853991,-49.42324,16.130396
1784152460.2291,14:54:20.229,11,false,0.512212,-0.524902,0.336548,0.590637,0.961196,0.141726,-0.223758,-27.879914,-49.505407,16.222094
1784152460.2605,14:54:20.260,12,false,0.512221,-0.524902,0.336426,0.590698,0.963638,0.147097,-0.229129,-27.813521,-49.624218,16.289669
1784152460.2918,14:54:20.291,13,false,0.512375,-0.524841,0.336609,0.590515,0.966079,0.132937,-0.22327,-27.708907,-49.626472,16.350486
1784152460.3231,14:54:20.323,14,false,0.512525,-0.524841,0.336487,0.590454,0.974868,0.14905,-0.214969,-27.644662,-49.613546,16.240729
1784152460.3545,14:54:20.354,15,false,0.512345,-0.525085,0.33606,0.590637,0.967544,0.135378,-0.220829,-27.586841,-49.601913,16.246625
1784152460.3858,14:54:20.385,16,false,0.512362,-0.525146,0.335938,0.590637,0.962173,0.133913,-0.221317,-27.654433,-49.531628,16.236977
1784152460.417,14:54:20.417,17,false,0.512359,-0.525208,0.335632,0.590759,0.962173,0.136843,-0.229618,-27.640496,-49.468371,16.228294
1784152460.4481,14:54:20.448,18,false,0.512501,-0.525146,0.33551,0.590759,0.961685,0.137819,-0.222782,-27.702723,-49.516117,16.190572
1784152460.4792,14:54:20.479,19,false,0.512501,-0.525146,0.33551,0.590759,0.967056,0.130983,-0.221805,-27.803588,-49.484319,16.18653
1784152460.5104,14:54:20.510,20,false,0.512702,-0.525391,0.335144,0.590576,0.95729,0.151003,-0.228153,-27.774736,-49.321117,16.182892
1784152460.5415,14:54:20.541,21,false,0.512727,-0.525513,0.335022,0.590515,0.971939,0.133913,-0.222293,-27.748769,-49.278911,16.179617
1784152460.5729,14:54:20.572,22,false,0.512904,-0.526306,0.334473,0.589966,0.964126,0.145632,-0.218875,-27.770261,-49.345603,16.071994
1784152460.6042,14:54:20.604,23,false,0.512914,-0.526978,0.334045,0.5896,0.973892,0.145632,-0.234501,-27.89428,-49.271041,16.079809
1784152460.6356,14:54:20.635,24,false,0.512944,-0.527954,0.332886,0.589355,0.973892,0.139284,-0.222782,-27.916174,-49.218889,15.967212
1784152460.6669,14:54:20.666,25,false,0.513617,-0.528259,0.332336,0.588806,0.959243,0.153933,-0.211063,-27.950833,-49.216814,16.135044
1784152460.6982,14:54:20.698,26,false,0.514632,-0.528564,0.33136,0.588196,0.949477,0.143679,-0.218875,-27.952118,-49.289716,16.181416
1784152460.7296,14:54:20.729,27,false,0.516619,-0.529114,0.329224,0.587158,0.957778,0.145144,-0.215457,-28.117767,-49.160927,16.193244
1784152460.7609,14:54:20.760,28,false,0.518386,-0.529358,0.327026,0.586609,0.958267,0.148562,-0.229129,-28.162174,-48.970249,16.099211
1784152460.7921,14:54:20.792,29,false,0.520908,-0.529907,0.323975,0.585571,0.943618,0.15198,-0.242313,-28.20214,-48.948176,16.119259
1784152460.8232,14:54:20.823,30,false,0.525999,-0.531982,0.316895,0.583008,0.928481,0.171511,-0.248173,-28.133433,-48.718957,16.122348
1784152460.8543,14:54:20.854,31,false,0.529249,-0.53418,0.311096,0.581177,0.933364,0.199832,-0.255497,-28.041689,-48.51266,15.990543
1784152460.8855,14:54:20.885,0,false,0.532989,-0.538025,0.303101,0.57843,0.953872,0.221805,-0.248173,-28.048842,-48.207362,16.021458
1784152460.9166,14:54:20.916,1,false,0.533983,-0.539185,0.301147,0.577454,0.952895,0.238407,-0.261845,-27.920695,-47.977455,15.92965
1784152460.9478,14:54:20.947,2,false,0.535018,-0.542664,0.297241,0.575256,0.963149,0.266239,-0.254032,-27.924994,-47.740631,15.847023
1784152460.9791,14:54:20.979,3,false,0.535154,-0.544739,0.296265,0.573669,0.958267,0.265751,-0.248661,-27.913909,-47.467674,15.757705
1784152461.0104,14:54:21.010,4,false,0.534019,-0.548279,0.296265,0.57135,0.965103,0.285771,-0.228641,-27.933841,-47.192105,15.677318
1784152461.0418,14:54:21.041,5,false,0.532756,-0.550598,0.297058,0.569885,0.958267,0.289677,-0.203738,-27.966733,-46.92914,15.649832
1784152461.0731,14:54:21.073,6,false,0.531221,-0.552673,0.298523,0.568542,0.946059,0.275517,-0.19202,-27.891658,-46.617701,15.669956
1784152461.1045,14:54:21.104,7,false,0.528516,-0.55481,0.301208,0.567566,0.92311,0.251591,-0.156863,-28.003538,-46.54676,15.897422
1784152461.1358,14:54:21.135,8,false,0.526787,-0.555115,0.302979,0.567932,0.930434,0.248173,-0.147097,-28.059368,-46.438052,16.057279
1784152461.1669,14:54:21.166,9,false,0.523954,-0.553833,0.305298,0.570557,0.953384,0.218875,-0.15198,-28.139522,-46.340215,15.917027
1784152461.1981,14:54:21.198,10,false,0.523102,-0.551941,0.306641,0.572449,0.967544,0.197879,-0.158816,-28.121939,-46.416653,15.985201
1784152461.2292,14:54:21.229,11,false,0.52337,-0.550476,0.306763,0.573547,0.953384,0.209598,-0.160281,-28.091159,-46.350863,15.986742
1784152461.2604,14:54:21.260,12,false,0.526962,-0.54895,0.305054,0.572632,0.908949,0.214969,-0.194461,-28.183089,-46.231837,15.973175
1784152461.2915,14:54:21.291,13,false,0.530536,-0.548157,0.302795,0.571289,0.903578,0.231571,-0.185183,-28.265825,-46.199483,16.065642
1784152461.3228,14:54:21.322,14,false,0.534859,-0.546875,0.30072,0.56958,0.890394,0.253544,-0.208133,-28.31038,-46.095595,16.074092
1784152461.3542,14:54:21.354,15,false,0.542015,-0.543579,0.297791,0.567505,0.893812,0.252567,-0.242802,-28.410295,-45.912372,15.991975
1784152461.3855,14:54:21.385,16,false,0.546912,-0.539978,0.296082,0.567139,0.887465,0.268193,-0.259403,-28.35068,-45.897011,15.962931
1784152461.4169,14:54:21.416,17,false,0.554405,-0.533203,0.294067,0.567322,0.877699,0.239384,-0.273564,-28.267119,-45.943,15.847068
1784152461.4482,14:54:21.448,18,false,0.556728,-0.530823,0.293396,0.567627,0.930434,0.265751,-0.309697,-28.102191,-45.894668,15.727838
1784152461.4795,14:54:21.479,19,false,0.562056,-0.523865,0.292786,0.569153,0.982193,0.269169,-0.341924,-28.013571,-45.821261,15.530807
1784152461.5109,14:54:21.510,20,false,0.563838,-0.52002,0.294312,0.570129,1.002213,0.279423,-0.340459,-27.859044,-45.725288,15.413295
1784152461.542,14:54:21.542,21,false,0.56323,-0.516846,0.297729,0.571838,0.9944,0.266728,-0.335576,-27.719969,-45.743588,15.277627
1784152461.5732,14:54:21.573,22,false,0.561605,-0.516052,0.300171,0.572876,0.927016,0.229618,-0.308721,-27.684525,-45.789966,15.065802
1784152461.6043,14:54:21.604,23,false,0.559943,-0.515869,0.302185,0.573608,0.916274,0.219852,-0.29456,-27.66758,-45.72703,14.994791
1784152461.6354,14:54:21.635,24,false,0.557573,-0.516785,0.303955,0.574158,0.898207,0.227176,-0.274052,-27.607467,-45.804972,14.915927
1784152461.6666,14:54:21.666,25,false,0.556188,-0.517578,0.304565,0.574463,0.909926,0.219364,-0.273075,-27.478596,-45.949888,14.844949
1784152461.6977,14:54:21.697,26,false,0.554752,-0.51825,0.305237,0.57489,0.907973,0.215946,-0.278447,-27.527105,-45.811144,14.796023
1784152461.7291,14:54:21.729,27,false,0.552523,-0.519348,0.30603,0.575623,0.95729,0.236454,-0.288212,-27.451132,-45.865721,14.796851
1784152461.7604,14:54:21.760,28,false,0.551122,-0.520264,0.306885,0.575684,0.95729,0.242313,-0.296025,-27.487433,-45.855024,14.81255
1784152461.7917,14:54:21.791,29,false,0.547947,-0.522095,0.308655,0.576111,0.947036,0.230594,-0.281376,-27.535058,-45.860351,14.841633
1784152461.8231,14:54:21.823,30,false,0.546553,-0.522888,0.309326,0.576355,0.961196,0.24329,-0.275517,-27.577921,-46.134314,14.8379
1784152461.8544,14:54:21.854,31,false,0.541169,-0.526245,0.311951,0.576965,0.966079,0.20325,-0.255497,-27.646405,-46.007035,14.939217
1784152461.8856,14:54:21.885,0,false,0.536451,-0.528687,0.314941,0.577515,0.956313,0.180789,-0.234989,-27.603364,-46.042023,14.955633
1784152461.9167,14:54:21.916,1,false,0.528983,-0.531738,0.320923,0.578308,0.946059,0.163699,-0.227665,-27.489857,-46.178188,15.045177
1784152461.9478,14:54:21.947,2,false,0.523221,-0.534058,0.325928,0.578613,0.933364,0.153445,-0.187625,-27.626963,-46.255876,15.140721
1784152461.979,14:54:21.979,3,false,0.521796,-0.534912,0.327026,0.578491,0.961196,0.171511,-0.173953,-27.570912,-46.460379,15.22671
1784152462.0101,14:54:22.010,4,false,0.518385,-0.537476,0.328674,0.578247,0.956802,0.186648,-0.16614,-27.684958,-46.674339,15.4985
1784152462.0413,14:54:22.041,5,false,0.516663,-0.539429,0.328186,0.578247,0.958755,0.184695,-0.173953,-27.727785,-46.762227,15.518803
1784152462.0724,14:54:22.072,6,false,0.515353,-0.542297,0.32605,0.577942,0.955825,0.191531,-0.16907,-27.975682,-46.826372,15.686614
1784152462.1037,14:54:22.103,7,false,0.514719,-0.543945,0.323975,0.578125,0.944106,0.18909,-0.174929,-28.034298,-46.943918,15.747922
1784152462.1351,14:54:22.135,8,false,0.513813,-0.545166,0.322266,0.578735,0.958267,0.185183,-0.179812,-28.057144,-46.989894,15.833006
1784152462.1664,14:54:22.166,9,false,0.512474,-0.545654,0.321045,0.580139,0.996353,0.182742,-0.201297,-28.137521,-46.986411,16.029212
1784152462.1978,14:54:22.197,10,false,0.512682,-0.544861,0.321289,0.580566,0.95436,0.177371,-0.205692,-28.224814,-47.072999,16.116075
1784152462.2289,14:54:22.228,11,false,0.51345,-0.544006,0.321289,0.580688,0.97145,0.193973,-0.210575,-28.27347,-47.031298,16.194252
1784152462.2603,14:54:22.260,12,false,0.514304,-0.544067,0.320923,0.580078,0.980728,0.221317,-0.207156,-28.39203,-46.963859,16.159934
1784152462.2914,14:54:22.291,13,false,0.514208,-0.544678,0.320923,0.57959,0.972427,0.2262,-0.193484,-28.409011,-46.992887,16.144002
1784152462.3225,14:54:22.322,14,false,0.514711,-0.545288,0.319519,0.579346,0.894301,0.211063,-0.179324,-28.424293,-47.019012,16.204432
1784152462.3537,14:54:22.353,15,false,0.514954,-0.545471,0.318481,0.579529,0.92311,0.203738,-0.200809,-28.303463,-46.952802,16.243865
1784152462.3848,14:54:22.384,16,false,0.51553,-0.544617,0.316223,0.581055,0.963638,0.185183,-0.22034,-28.493793,-47.042751,16.33917
1784152462.416,14:54:22.416,17,false,0.515606,-0.54303,0.315796,0.582703,0.987076,0.194461,-0.235966,-28.39592,-47.048936,16.320268
1784152462.4471,14:54:22.447,18,false,0.515677,-0.540039,0.316406,0.585083,0.981216,0.175418,-0.243778,-28.487281,-47.099364,16.437841
1784152462.4784,14:54:22.478,19,false,0.515446,-0.537781,0.317688,0.58667,0.977798,0.167117,-0.250614,-28.464829,-47.055026,16.274487
1784152462.5098,14:54:22.509,20,false,0.514932,-0.535583,0.319519,0.588135,0.973404,0.160769,-0.240848,-28.414715,-46.940353,16.262053
1784152462.5411,14:54:22.541,21,false,0.513593,-0.532959,0.322449,0.590088,0.981216,0.167605,-0.239872,-28.384565,-46.896962,16.16114
1784152462.5725,14:54:22.572,22,false,0.512549,-0.532288,0.324097,0.590698,0.964614,0.168582,-0.219852,-28.417246,-47.022403,16.264717
1784152462.6038,14:54:22.603,23,false,0.511337,-0.532898,0.325562,0.590393,0.9402,0.18323,-0.192508,-28.386844,-47.225023,16.13363
1784152462.6351,14:54:22.635,24,false,0.508488,-0.536377,0.325195,0.589905,0.935805,0.177371,-0.167117,-28.419297,-47.168119,16.060513
1784152462.6665,14:54:22.666,25,false,0.507144,-0.538391,0.323853,0.589966,0.914321,0.184695,-0.170047,-28.373736,-47.371121,15.994707
1784152462.6976,14:54:22.697,26,false,0.50636,-0.53949,0.322021,0.590637,0.950454,0.160281,-0.18909,-28.437407,-47.419238,16.010251
1784152462.7288,14:54:22.728,27,false,0.505634,-0.539429,0.321472,0.591614,0.990005,0.162234,-0.197879,-28.419943,-47.537313,16.09901
1784152462.7599,14:54:22.759,28,false,0.504915,-0.538696,0.322144,0.592529,1.015396,0.180301,-0.221805,-28.523855,-47.748257,16.178893
1784152462.791,14:54:22.791,29,false,0.502624,-0.536438,0.324646,0.595154,1.008072,0.12903,-0.219364,-28.452884,-47.923153,16.235834
1784152462.8224,14:54:22.822,30,false,0.500883,-0.533875,0.327515,0.597351,0.982193,0.108034,-0.23743,-28.418918,-48.080559,16.242219
1784152462.8537,14:54:22.853,31,false,0.497937,-0.530823,0.330811,0.600708,0.962173,0.109499,-0.221805,-28.373395,-48.057732,16.277874
1784152462.8851,14:54:22.885,0,false,0.497444,-0.530029,0.331604,0.601379,0.970474,0.103639,-0.225223,-28.272608,-48.201681,16.280055
1784152462.9164,14:54:22.916,1,false,0.496547,-0.528625,0.333191,0.602478,0.969009,0.109987,-0.229129,-28.241716,-48.301326,16.267065
1784152462.9477,14:54:22.947,2,false,0.49633,-0.52832,0.333557,0.602722,0.95729,0.109499,-0.224247,-28.303635,-48.420915,16.270327
1784152462.9791,14:54:22.979,3,false,0.496702,-0.528564,0.332947,0.602539,0.935317,0.120729,-0.210086,-28.060286,-48.483684,16.243355
1784152463.0102,14:54:23.010,4,false,0.497682,-0.529053,0.332031,0.601807,0.950942,0.130007,-0.210086,-27.960903,-48.614945,16.248988
1784152463.0414,14:54:23.041,5,false,0.498755,-0.529663,0.330994,0.600952,0.969009,0.124636,-0.210575,-28.050904,-48.628402,16.194243
1784152463.0725,14:54:23.072,6,false,0.499773,-0.530212,0.330017,0.600159,0.944594,0.137331,-0.222782,-28.131905,-48.745191,16.17488
1784152463.1036,14:54:23.103,7,false,0.500294,-0.530457,0.329834,0.599609,0.958755,0.145632,-0.222782,-28.130037,-48.925071,16.052776
1784152463.1348,14:54:23.134,8,false,0.500817,-0.530701,0.3302,0.598755,0.973892,0.129519,-0.224247,-28.113402,-48.892562,16.062513
1784152463.1659,14:54:23.165,9,false,0.500845,-0.531433,0.331299,0.597473,0.975357,0.143679,-0.215457,-28.158245,-49.057704,16.056323
1784152463.1971,14:54:23.197,10,false,0.501022,-0.531677,0.332397,0.596497,0.970474,0.15198,-0.205203,-28.093927,-48.967071,16.170382
1784152463.2284,14:54:23.228,11,false,0.500807,-0.532043,0.333557,0.595703,0.954849,0.148074,-0.196902,-28.080903,-48.990178,16.09359
1784152463.2597,14:54:23.259,12,false,0.500676,-0.532043,0.333862,0.595642,0.981704,0.146609,-0.212039,-28.084135,-49.040881,16.188969
1784152463.2911,14:54:23.291,13,false,0.50003,-0.531738,0.335205,0.595703,0.981704,0.142702,-0.201297,-28.221628,-48.922022,16.229948
1784152463.3224,14:54:23.322,14,false,0.49944,-0.531372,0.336121,0.596008,0.962661,0.128054,-0.211551,-28.18088,-49.158988,16.102338
1784152463.3538,14:54:23.353,15,false,0.498323,-0.531311,0.336792,0.596619,0.97145,0.124147,-0.210086,-28.15916,-49.207764,16.107119
1784152463.3851,14:54:23.385,16,false,0.497455,-0.531433,0.337341,0.596924,0.976822,0.104128,-0.208621,-28.079797,-49.236709,16.171237
1784152463.4162,14:54:23.416,17,false,0.497194,-0.531433,0.337402,0.597107,0.978775,0.104616,-0.204227,-28.053232,-49.143129,16.184082
1784152463.4474,14:54:23.447,18,false,0.496933,-0.531433,0.337463,0.59729,0.984146,0.117311,-0.203738,-28.104093,-49.133676,16.195643
1784152463.4785,14:54:23.478,19,false,0.49672,-0.531494,0.337463,0.597412,0.988052,0.120241,-0.207645,-28.149867,-49.125169,16.206047
1784152463.5097,14:54:23.509,20,false,0.496493,-0.53125,0.338074,0.597473,1.009537,0.118776,-0.202274,-28.071433,-49.192281,16.335042
1784152463.5408,14:54:23.540,21,false,0.496112,-0.53064,0.33905,0.597778,1.013931,0.105592,-0.214481,-28.120474,-49.297544,16.406276
1784152463.5721,14:54:23.572,22,false,0.495174,-0.530212,0.339905,0.59845,1.026627,0.115846,-0.205203,-28.179564,-49.332465,16.305894
1784152463.6035,14:54:23.603,23,false,0.493119,-0.529907,0.341858,0.599304,0.980728,0.086061,-0.194949,-28.038345,-49.393801,16.394996
1784152463.6348,14:54:23.634,24,false,0.490898,-0.529846,0.344177,0.599854,0.975357,0.071901,-0.190555,-27.911248,-49.344327,16.415373
1784152463.6662,14:54:23.666,25,false,0.489108,-0.529785,0.346069,0.600281,0.930922,0.094362,-0.18323,-27.856676,-49.539062,16.448666
1784152463.6975,14:54:23.697,26,false,0.487953,-0.531006,0.346252,0.600037,0.929946,0.092409,-0.168093,-27.792608,-49.69937,16.493583
1784152463.7289,14:54:23.728,27,false,0.488369,-0.532471,0.344788,0.599243,0.929946,0.088991,-0.16907,-27.794762,-49.8586,16.65364
1784152463.76,14:54:23.760,28,false,0.489581,-0.53479,0.34137,0.598145,0.94313,0.099245,-0.172,-27.826608,-50.001908,16.797691
1784152463.7913,14:54:23.791,29,false,0.490253,-0.5354,0.340088,0.597778,0.956313,0.102663,-0.192996,-27.930038,-49.981346,16.792752
1784152463.8227,14:54:23.822,30,false,0.492335,-0.536499,0.337158,0.596741,0.967056,0.119753,-0.195926,-28.008172,-50.097426,16.773353
1784152463.8538,14:54:23.853,31,false,0.493609,-0.536743,0.335876,0.596191,0.965103,0.113893,-0.193973,-28.033631,-50.007497,16.785802
1784152463.885,14:54:23.885,0,false,0.495205,-0.536438,0.335205,0.59552,0.983658,0.136355,-0.20911,-27.981775,-49.896653,16.767098
1784152463.9161,14:54:23.916,1,false,0.496106,-0.535889,0.33551,0.595093,0.969009,0.123171,-0.20032,-28.054735,-49.946433,16.854942
1784152463.9472,14:54:23.947,2,false,0.496909,-0.535156,0.335815,0.59491,0.949966,0.133425,-0.202762,-28.000768,-49.991234,16.859231
1784152463.9784,14:54:23.978,3,false,0.498492,-0.534485,0.33551,0.59436,0.954849,0.137331,-0.210086,-27.99706,-49.911924,16.788323
1784152464.0097,14:54:24.009,4,false,0.499825,-0.534302,0.3349,0.59375,0.972915,0.138308,-0.219852,-27.94886,-49.915315,16.724506
1784152464.0411,14:54:24.041,5,false,0.501721,-0.534241,0.334106,0.592651,0.938735,0.148562,-0.213504,-27.830712,-49.918366,16.66707
1784152464.0724,14:54:24.072,6,false,0.505418,-0.535034,0.33136,0.590332,0.941176,0.188113,-0.19202,-27.873917,-49.995882,16.690147
1784152464.1037,14:54:24.103,7,false,0.50852,-0.536133,0.328735,0.588135,0.961196,0.179812,-0.20325,-28.047386,-49.901154,16.72587
1784152464.1351,14:54:24.135,8,false,0.512771,-0.53772,0.324524,0.585327,1.000259,0.218875,-0.212528,-28.1736,-49.66636,16.758021
1784152464.1664,14:54:24.166,9,false,0.514707,-0.538025,0.322266,0.584595,0.97145,0.197391,-0.222293,-28.032978,-49.484953,16.697234
1784152464.1976,14:54:24.197,10,false,0.51651,-0.537231,0.320923,0.584473,0.951431,0.190066,-0.224247,-28.130725,-49.202057,16.687387
1784152464.2287,14:54:24.228,11,false,0.518545,-0.534729,0.320374,0.585266,0.951919,0.185183,-0.23743,-28.039252,-49.022219,16.708432
1784152464.2598,14:54:24.259,12,false,0.519232,-0.533142,0.320679,0.585938,0.938735,0.195926,-0.24036,-28.061603,-48.755688,16.697466
1784152464.291,14:54:24.291,13,false,0.520155,-0.531311,0.321106,0.586548,0.953872,0.181277,-0.24329,-28.051811,-48.695256,16.567965
1784152464.3221,14:54:24.322,14,false,0.52038,-0.531067,0.320923,0.58667,0.948989,0.194949,-0.23743,-28.102813,-48.73059,16.481322
1784152464.3535,14:54:24.353,15,false,0.520818,-0.531006,0.320313,0.58667,0.984146,0.175906,-0.2262,-28.238439,-48.597899,16.522973
1784152464.3848,14:54:24.384,16,false,0.520013,-0.531555,0.320374,0.586853,0.972427,0.164187,-0.229129,-28.151148,-48.433615,16.36606
1784152464.4161,14:54:24.416,17,false,0.519506,-0.531921,0.320923,0.58667,0.949966,0.165164,-0.222782,-27.997817,-48.315668,16.359423
1784152464.4475,14:54:24.447,18,false,0.51923,-0.532043,0.321167,0.58667,0.961685,0.168582,-0.210086,-27.904681,-48.239422,16.248772
1784152464.4788,14:54:24.478,19,false,0.518777,-0.531982,0.321777,0.586792,0.947036,0.162722,-0.222293,-27.775996,-48.215663,16.328633
1784152464.5102,14:54:24.510,20,false,0.517776,-0.531311,0.322937,0.587646,0.942153,0.168093,-0.228153,-27.779811,-48.224188,16.325739
1784152464.5415,14:54:24.541,21,false,0.517396,-0.531067,0.323059,0.588135,0.954849,0.152468,-0.22327,-27.753337,-48.216906,16.353041
1784152464.5726,14:54:24.572,22,false,0.517517,-0.531006,0.322632,0.588318,0.963149,0.159792,-0.22327,-27.864095,-48.225306,16.392567
1784152464.6038,14:54:24.603,23,false,0.517754,-0.531189,0.321167,0.588745,0.967544,0.158816,-0.231571,-27.724515,-48.188005,16.293556
1784152464.6349,14:54:24.634,24,false,0.518169,-0.531067,0.320251,0.588989,0.959731,0.158816,-0.227665,-27.658709,-48.169387,16.294169
1784152464.6661,14:54:24.666,25,false,0.519394,-0.530396,0.319153,0.589111,0.970962,0.166629,-0.236942,-27.749022,-48.227401,16.190044
1784152464.6972,14:54:24.697,26,false,0.519849,-0.53009,0.319031,0.58905,0.959731,0.181277,-0.238407,-27.830303,-48.279613,16.141193
1784152464.7283,14:54:24.728,27,false,0.520312,-0.52948,0.318726,0.589355,0.958755,0.182742,-0.232547,-27.768872,-48.19202,16.037412
1784152464.7597,14:54:24.759,28,false,0.520497,-0.529053,0.318909,0.589478,0.956313,0.18909,-0.240848,-27.878076,-48.173001,15.929055
1784152464.791,14:54:24.791,29,false,0.519593,-0.528992,0.31958,0.589966,0.960708,0.18909,-0.236942,-28.051129,-48.051207,15.906303
1784152464.8224,14:54:24.822,30,false,0.518646,-0.529297,0.319824,0.590393,0.962661,0.181277,-0.235966,-28.1022,-48.076177,15.736287
1784152464.8537,14:54:24.853,31,false,0.517402,-0.529968,0.319824,0.590881,0.955337,0.177859,-0.216434,-28.088348,-47.934158,15.672997
1784152464.885,14:54:24.885,0,false,0.516235,-0.530457,0.319885,0.591431,0.952407,0.169558,-0.225711,-28.180559,-48.105417,15.645943
1784152464.9164,14:54:24.916,1,false,0.515643,-0.530457,0.319824,0.59198,0.96022,0.149538,-0.235477,-28.009333,-47.930567,15.591686
1784152464.9475,14:54:24.947,2,false,0.514967,-0.530212,0.319397,0.593018,0.959243,0.165652,-0.234012,-27.989814,-47.937693,15.602671
1784152464.9787,14:54:24.978,3,false,0.514576,-0.530029,0.31897,0.59375,0.956313,0.162722,-0.24036,-27.837663,-48.063738,15.477973
1784152465.0098,14:54:25.009,4,false,0.514676,-0.529663,0.318848,0.594055,0.961196,0.160769,-0.24036,-27.865219,-48.162224,15.605006
1784152465.0409,14:54:25.040,5,false,0.51425,-0.529297,0.318665,0.594849,0.965591,0.16907,-0.239384,-27.93488,-48.250861,15.46512
1784152465.0721,14:54:25.072,6,false,0.514022,-0.529175,0.318665,0.595154,0.945571,0.158328,-0.246708,-27.952715,-48.300728,15.518669
1784152465.1034,14:54:25.103,7,false,0.513707,-0.529175,0.318604,0.595459,0.949477,0.157351,-0.239872,-28.058488,-48.255884,15.402371
1784152465.1348,14:54:25.134,8,false,0.513428,-0.529175,0.318481,0.595764,0.949477,0.158816,-0.234501,-27.974239,-48.245433,15.477149
1784152465.1661,14:54:25.166,9,false,0.51356,-0.529175,0.318726,0.59552,0.959243,0.153445,-0.235477,-27.913368,-48.370611,15.499587
1784152465.1974,14:54:25.197,10,false,0.513836,-0.529358,0.319458,0.594727,0.97145,0.164187,-0.245731,-27.84363,-48.273918,15.459966
1784152465.2288,14:54:25.228,11,false,0.514064,-0.529358,0.319885,0.594299,0.969497,0.161257,-0.222293,-28.035082,-48.261663,15.603754
1784152465.2599,14:54:25.259,12,false,0.514155,-0.529785,0.320618,0.593445,0.964126,0.161257,-0.216434,-28.102711,-48.295495,15.628486
1784152465.2911,14:54:25.291,13,false,0.514147,-0.529907,0.321106,0.593079,0.949477,0.161746,-0.223758,-28.073854,-48.370805,15.590929
1784152465.3222,14:54:25.322,14,false,0.514393,-0.529602,0.321777,0.592773,0.961196,0.165164,-0.236942,-28.092745,-48.453539,15.437497
1784152465.3533,14:54:25.353,15,false,0.514517,-0.529297,0.322083,0.592773,0.969497,0.157351,-0.226688,-28.109747,-48.468183,15.433993
1784152465.3845,14:54:25.384,16,false,0.515174,-0.528564,0.322571,0.59259,0.958267,0.162234,-0.228153,-28.125048,-48.361733,15.505609
1784152465.4158,14:54:25.415,17,false,0.515838,-0.527649,0.32312,0.592529,0.96022,0.170047,-0.240848,-28.049096,-48.430419,15.450432
1784152465.447,14:54:25.447,18,false,0.516116,-0.527222,0.323486,0.592468,0.963149,0.179324,-0.241337,-27.995693,-48.372607,15.520404
1784152465.4781,14:54:25.478,19,false,0.516582,-0.526794,0.324219,0.592041,0.955337,0.165652,-0.234989,-28.0224,-48.395345,15.658147
1784152465.5095,14:54:25.509,20,false,0.516628,-0.526428,0.325073,0.591858,0.963638,0.171023,-0.232547,-28.106251,-48.46067,15.557809
1784152465.5408,14:54:25.540,21,false,0.516322,-0.526245,0.325745,0.591919,0.952895,0.147585,-0.232059,-28.091995,-48.42974,15.617043
1784152465.5721,14:54:25.572,22,false,0.516336,-0.525635,0.327148,0.591675,0.959731,0.14612,-0.217899,-27.959533,-48.551441,15.715215
1784152465.6035,14:54:25.603,23,false,0.516314,-0.52533,0.328003,0.591492,0.961685,0.153933,-0.237919,-27.944994,-48.526388,15.713847
1784152465.6348,14:54:25.634,24,false,0.516159,-0.525269,0.328674,0.591309,0.963638,0.153445,-0.22034,-27.872094,-48.638425,15.6528
1784152465.6662,14:54:25.666,25,false,0.51587,-0.525146,0.329651,0.591125,0.962173,0.150515,-0.228153,-27.866299,-48.604673,15.582904
1784152465.6973,14:54:25.697,26,false,0.515783,-0.525024,0.3302,0.591003,0.954849,0.15198,-0.213504,-27.861084,-48.768696,15.654583
1784152465.7284,14:54:25.728,27,false,0.515631,-0.524597,0.331116,0.591003,0.95729,0.153933,-0.227176,-27.85639,-48.946225,15.793862
1784152465.7596,14:54:25.759,28,false,0.515528,-0.524475,0.33136,0.591064,0.947036,0.147097,-0.236454,-27.79235,-49.046186,15.829491
1784152465.7907,14:54:25.790,29,false,0.515197,-0.524109,0.331909,0.59137,0.969009,0.14612,-0.234501,-27.794529,-49.046427,15.876511
1784152465.8219,14:54:25.821,30,false,0.515155,-0.523987,0.332275,0.591309,0.97145,0.151492,-0.227665,-27.736676,-49.001783,15.76929
1784152465.853,14:54:25.853,31,false,0.514714,-0.523865,0.332825,0.591492,0.968521,0.147585,-0.222293,-27.759376,-49.096188,15.702699
1784152465.8843,14:54:25.884,0,false,0.514521,-0.523499,0.333374,0.591675,0.95436,0.138796,-0.229129,-27.734946,-49.181152,15.852121
1784152465.9157,14:54:25.915,1,false,0.51451,-0.523315,0.333679,0.591675,0.957778,0.142214,-0.222293,-27.593327,-49.212758,15.86697
1784152465.947,14:54:25.947,2,false,0.514369,-0.523315,0.333679,0.591797,0.95436,0.151003,-0.237919,-27.66027,-49.181389,15.790611
1784152465.9784,14:54:25.978,3,false,0.514276,-0.523376,0.333618,0.591858,0.962173,0.151492,-0.227665,-27.705566,-49.28774,15.961149
1784152466.0095,14:54:26.009,4,false,0.514598,-0.523132,0.334045,0.591553,0.968032,0.152956,-0.225223,-27.716424,-49.308688,16.114634
1784152466.0406,14:54:26.040,5,false,0.514714,-0.522766,0.334656,0.591431,0.958267,0.130007,-0.239384,-27.726196,-49.178002,16.133139
1784152466.0718,14:54:26.071,6,false,0.514913,-0.522522,0.334839,0.59137,0.962173,0.140261,-0.223758,-27.675175,-49.224877,16.179701
1784152466.1029,14:54:26.102,7,false,0.514715,-0.522522,0.335144,0.59137,0.949966,0.142702,-0.241337,-27.644211,-49.177342,16.1917
1784152466.1341,14:54:26.134,8,false,0.514605,-0.522522,0.335205,0.591431,0.956802,0.130495,-0.225711,-27.52662,-49.224283,16.157637
1784152466.1652,14:54:26.165,9,false,0.514056,-0.522461,0.335388,0.591858,0.962173,0.130007,-0.234012,-27.570326,-49.191761,16.126981
1784152466.1963,14:54:26.196,10,false,0.513748,-0.5224,0.335632,0.592041,0.963149,0.145632,-0.228641,-27.5648,-49.192399,16.129298
1784152466.2275,14:54:26.227,11,false,0.512583,-0.522766,0.336304,0.592346,0.977798,0.154421,-0.225223,-27.604689,-49.312603,16.056613
1784152466.2588,14:54:26.258,12,false,0.510536,-0.523132,0.337769,0.592957,1.007095,0.115846,-0.207156,-27.730311,-49.360972,16.15569
1784152466.2902,14:54:26.290,13,false,0.509473,-0.523132,0.338623,0.593384,1.026627,0.110475,-0.20911,-27.738694,-49.449366,16.140182
1784152466.3215,14:54:26.321,14,false,0.506291,-0.521545,0.342712,0.595154,0.985611,0.05774,-0.212528,-27.74624,-49.454151,16.230902
1784152466.3528,14:54:26.352,15,false,0.504817,-0.520325,0.345459,0.595886,0.975357,0.062135,-0.196414,-27.723122,-49.622949,16.222826
1784152466.384,14:54:26.384,16,false,0.504122,-0.51947,0.347961,0.595764,0.961685,0.073365,-0.185672,-27.687363,-49.640284,16.305282
1784152466.4153,14:54:26.415,17,false,0.503636,-0.519958,0.348145,0.595642,0.959731,0.105104,-0.173953,-27.729949,-49.730654,16.304722
1784152466.4465,14:54:26.446,18,false,0.503141,-0.520996,0.347412,0.595581,0.966567,0.104128,-0.168093,-27.768276,-49.70731,16.378988
1784152466.4776,14:54:26.477,19,false,0.502936,-0.521423,0.345703,0.596375,0.934829,0.071412,-0.215457,-27.847632,-49.76107,16.34115
1784152466.5087,14:54:26.508,20,false,0.504303,-0.520203,0.344177,0.597168,0.932876,0.072877,-0.235477,-28.038684,-49.674869,16.292142
1784152466.5399,14:54:26.539,21,false,0.507045,-0.518433,0.341858,0.597717,0.932876,0.112428,-0.264286,-28.01623,-49.687011,16.18822
1784152466.571,14:54:26.571,22,false,0.512616,-0.515747,0.337585,0.597717,0.951431,0.138308,-0.282353,-27.891344,-49.638124,16.109644
1784152466.6024,14:54:26.602,23,false,0.516384,-0.514648,0.335022,0.596863,0.962661,0.158816,-0.290654,-27.973348,-49.638987,16.188463
1784152466.6337,14:54:26.633,24,false,0.520504,-0.514526,0.331421,0.595398,0.950454,0.172976,-0.281865,-27.837797,-49.729487,16.035094
1784152466.665,14:54:26.665,25,false,0.521566,-0.514832,0.330261,0.594849,0.966567,0.189578,-0.262333,-27.79057,-49.661398,15.956876
1784152466.6964,14:54:26.696,26,false,0.523434,-0.516541,0.327148,0.593445,0.967056,0.202274,-0.259892,-27.807881,-49.659933,15.796757
1784152466.7277,14:54:26.727,27,false,0.524307,-0.5177,0.325684,0.592468,0.961196,0.196414,-0.253056,-27.673923,-49.613754,15.832096
1784152466.7591,14:54:26.759,28,false,0.524781,-0.518982,0.324097,0.591797,0.955825,0.187625,-0.249638,-27.777668,-49.512377,15.654548
1784152466.7902,14:54:26.790,29,false,0.524648,-0.519592,0.323669,0.591614,0.949966,0.18616,-0.253544,-27.721501,-49.451046,15.464846
1784152466.8213,14:54:26.821,30,false,0.524439,-0.519897,0.323853,0.591431,0.948989,0.181765,-0.252079,-27.775627,-49.470616,15.4287
1784152466.8525,14:54:26.852,31,false,0.523736,-0.519958,0.32489,0.591431,0.941176,0.179324,-0.24622,-27.854248,-49.428415,15.351306
1784152466.8836,14:54:26.883,0,false,0.523136,-0.519958,0.325745,0.591492,0.939223,0.165164,-0.239872,-27.954914,-49.315664,15.491006
1784152466.9148,14:54:26.914,1,false,0.522388,-0.520081,0.326416,0.591675,0.956802,0.168093,-0.241337,-27.91093,-49.303911,15.527012
1784152466.9459,14:54:26.945,2,false,0.520133,-0.52063,0.327148,0.592773,0.963638,0.16907,-0.245243,-27.85639,-49.35315,15.439788
1784152466.977,14:54:26.977,3,false,0.518667,-0.520874,0.327759,0.593506,0.953384,0.167605,-0.236942,-27.79235,-49.337648,15.436055
1784152467.0084,14:54:27.008,4,false,0.515936,-0.521606,0.328247,0.594971,0.972427,0.140749,-0.23743,-27.809483,-49.219021,15.432695
1784152467.0397,14:54:27.039,5,false,0.51494,-0.521912,0.328552,0.595398,0.966079,0.137819,-0.23743,-27.73518,-49.201978,15.459579
1784152467.0711,14:54:27.071,6,false,0.511869,-0.522705,0.329651,0.596741,0.972427,0.13489,-0.233036,-27.698215,-49.26141,15.483774
1784152467.1024,14:54:27.102,7,false,0.509186,-0.523315,0.331177,0.597656,0.953872,0.128542,-0.225223,-27.649993,-49.299944,15.595273
1784152467.1338,14:54:27.133,8,false,0.507495,-0.523804,0.331787,0.598328,0.960708,0.115846,-0.240848,-27.681362,-49.558933,15.620853
1784152467.1651,14:54:27.165,9,false,0.504814,-0.524719,0.332336,0.599487,0.969009,0.121218,-0.228641,-27.649779,-49.507899,15.58406
1784152467.1964,14:54:27.196,10,false,0.503948,-0.525024,0.332397,0.599915,0.961196,0.120729,-0.213993,-27.6064,-49.476923,15.506084
1784152467.2276,14:54:27.227,11,false,0.501776,-0.525879,0.332458,0.600952,0.95729,0.108034,-0.218387,-27.582313,-49.553722,15.555537
1784152467.2587,14:54:27.258,12,false,0.500683,-0.526184,0.33252,0.601563,0.963149,0.110475,-0.211063,-27.500819,-49.518163,15.614998
1784152467.2899,14:54:27.289,13,false,0.499116,-0.526733,0.332458,0.602417,0.98024,0.1178,-0.216922,-27.48729,-49.471207,15.623651
1784152467.321,14:54:27.321,14,false,0.498284,-0.526917,0.332642,0.602844,0.963638,0.106569,-0.218875,-27.609699,-49.518669,15.676301
1784152467.3521,14:54:27.352,15,false,0.497566,-0.5271,0.332764,0.60321,0.948501,0.113405,-0.213016,-27.645097,-49.456709,15.648917
1784152467.3835,14:54:27.383,16,false,0.497271,-0.527161,0.332886,0.603333,0.961196,0.122683,-0.215946,-27.632094,-49.326175,15.624271
1784152467.4148,14:54:27.414,17,false,0.497345,-0.527161,0.332886,0.603271,0.956313,0.131472,-0.215946,-27.650299,-49.373186,15.811443
1784152467.4462,14:54:27.446,18,false,0.497443,-0.5271,0.332947,0.60321,0.954849,0.128054,-0.221805,-27.621823,-49.415497,15.860267
1784152467.4775,14:54:27.477,19,false,0.497799,-0.526794,0.333008,0.603149,0.957778,0.145632,-0.230106,-27.656009,-49.513392,15.993932
1784152467.5088,14:54:27.508,20,false,0.49828,-0.526489,0.333435,0.602783,0.958755,0.15491,-0.22327,-27.537238,-49.451959,16.009554
1784152467.5402,14:54:27.540,21,false,0.497731,-0.526489,0.335022,0.602356,0.981216,0.174441,-0.22034,-27.490159,-49.411623,16.038567
1784152467.5715,14:54:27.571,22,false,0.496933,-0.526489,0.335876,0.602539,1.006119,0.141238,-0.201297,-27.373019,-49.494951,16.004864
1784152467.6027,14:54:27.602,23,false,0.492265,-0.525879,0.34082,0.604126,0.982681,0.07776,-0.197391,-27.44704,-49.674624,16.004439
1784152467.6338,14:54:27.633,24,false,0.488224,-0.524048,0.345947,0.606079,0.965103,0.049439,-0.192996,-27.48375,-49.791468,16.078825
1784152467.6649,14:54:27.664,25,false,0.483715,-0.520142,0.352539,0.609253,0.948989,0.013306,-0.198367,-27.51679,-50.046165,16.071004
1784152467.6961,14:54:27.696,26,false,0.482495,-0.5177,0.355469,0.610596,0.968521,0.001587,-0.209598,-27.471756,-50.350163,16.063964
1784152467.7272,14:54:27.727,27,false,0.482547,-0.516113,0.356445,0.611328,0.957778,-0.004761,-0.215946,-27.386364,-50.593852,16.087537
1784152467.7584,14:54:27.758,28,false,0.484556,-0.515198,0.355042,0.611328,0.956313,0.045045,-0.235477,-27.45905,-50.693542,16.078844
1784152467.7897,14:54:27.789,29,false,0.486574,-0.515137,0.352783,0.611084,0.959731,0.0636,-0.238407,-27.359975,-50.738402,16.130836
1784152467.821,14:54:27.821,30,false,0.490844,-0.515503,0.348633,0.609741,0.974868,0.096803,-0.250614,-27.420346,-51.062898,16.10286
1784152467.8524,14:54:27.852,31,false,0.493747,-0.515869,0.346008,0.608582,0.968032,0.105104,-0.26038,-27.39991,-51.10073,16.15245
1784152467.8837,14:54:27.883,0,false,0.49597,-0.516541,0.34375,0.607483,0.975845,0.109499,-0.259892,-27.590872,-51.149732,16.062497
1784152467.9149,14:54:27.914,1,false,0.49815,-0.51825,0.341248,0.605652,0.97731,0.118776,-0.235966,-27.717876,-51.238696,15.921724
1784152467.946,14:54:27.946,2,false,0.498861,-0.519653,0.340454,0.604309,0.987076,0.125612,-0.22327,-27.742457,-51.184179,15.809982
1784152467.9771,14:54:27.977,3,false,0.499152,-0.521118,0.339844,0.603149,0.96022,0.123171,-0.218387,-27.644949,-51.135113,15.843998
1784152468.0083,14:54:28.008,4,false,0.499302,-0.523193,0.339355,0.601501,0.950942,0.128542,-0.189578,-27.751592,-51.016185,15.949383
1784152468.0394,14:54:28.039,5,false,0.499346,-0.524536,0.338623,0.600708,0.948501,0.134401,-0.191531,-27.787755,-50.819426,15.984413
1784152468.0706,14:54:28.070,6,false,0.498824,-0.525879,0.337524,0.600586,0.961685,0.117311,-0.208621,-27.655809,-50.732067,15.89631
1784152468.1019,14:54:28.101,7,false,0.498607,-0.526001,0.337219,0.60083,0.969009,0.110475,-0.202762,-27.596874,-50.713258,15.90674
1784152468.1332,14:54:28.133,8,false,0.498781,-0.525513,0.336853,0.601318,0.966567,0.124636,-0.20618,-27.663462,-50.711285,15.975942
1784152468.1646,14:54:28.164,9,false,0.498766,-0.525146,0.336792,0.601685,0.957778,0.123171,-0.215946,-27.648623,-50.75437,16.172809
1784152468.1959,14:54:28.195,10,false,0.498439,-0.524475,0.337341,0.602234,0.97731,0.123659,-0.22034,-27.680129,-50.867916,16.170543
1784152468.2273,14:54:28.227,11,false,0.497681,-0.524109,0.33783,0.602905,0.976822,0.113405,-0.222782,-27.843069,-50.730846,16.123642
1784152468.2586,14:54:28.258,12,false,0.496796,-0.523804,0.338623,0.603455,0.987076,0.096315,-0.217899,-27.765407,-50.71216,16.141246
1784152468.2897,14:54:28.289,13,false,0.49507,-0.523804,0.339844,0.604187,0.98024,0.106081,-0.215946,-27.889912,-50.680388,16.186998
1784152468.3209,14:54:28.320,14,false,0.493853,-0.523926,0.340881,0.604492,0.978775,0.09778,-0.201785,-27.927197,-50.681702,16.108544
1784152468.3522,14:54:28.352,15,false,0.492426,-0.524109,0.341797,0.60498,0.966079,0.083619,-0.211063,-27.811215,-50.652976,16.082797
1784152468.3834,14:54:28.383,16,false,0.490574,-0.524414,0.343018,0.60553,0.961685,0.087037,-0.197879,-27.676923,-50.627123,16.089532
1784152468.4145,14:54:28.414,17,false,0.489613,-0.524719,0.343384,0.605835,0.967056,0.096803,-0.196414,-27.690645,-50.618809,16.050732
1784152468.4456,14:54:28.445,18,false,0.48891,-0.525024,0.343811,0.605896,0.967056,0.085084,-0.195438,-27.717949,-50.671142,16.105535
1784152468.4768,14:54:28.476,19,false,0.488661,-0.525146,0.343872,0.605957,0.982681,0.100221,-0.207645,-27.727569,-50.763103,16.095043
1784152468.5079,14:54:28.507,20,false,0.487898,-0.525452,0.343628,0.606445,0.958267,0.091432,-0.208133,-27.706319,-50.801007,16.025784
1784152468.5393,14:54:28.539,21,false,0.487888,-0.52533,0.343506,0.606628,0.941176,0.086061,-0.211063,-27.657286,-50.790258,16.217667
1784152468.5706,14:54:28.570,22,false,0.488522,-0.525452,0.342957,0.606323,0.926528,0.079713,-0.207156,-27.70288,-50.915169,16.195961
1784152468.6019,14:54:28.601,23,false,0.489623,-0.526001,0.341187,0.605957,0.993423,0.098268,-0.218875,-27.714006,-50.803282,16.176426
1784152468.6333,14:54:28.633,24,false,0.490019,-0.525879,0.340698,0.606018,0.962173,0.086061,-0.229618,-27.649251,-50.852121,16.188752
1784152468.6646,14:54:28.664,25,false,0.491881,-0.525818,0.338318,0.605896,0.98024,0.098268,-0.198856,-27.605925,-50.91103,16.229753
1784152468.6958,14:54:28.695,26,false,0.492889,-0.526306,0.336853,0.605469,0.993423,0.110964,-0.200809,-27.791239,-50.88928,16.221793
1784152468.7269,14:54:28.726,27,false,0.49364,-0.527649,0.334412,0.605042,0.93727,0.104616,-0.204227,-27.868299,-50.884658,16.094998
1784152468.7581,14:54:28.758,28,false,0.4945,-0.528381,0.332642,0.604675,0.944594,0.109987,-0.220829,-27.713345,-50.626283,15.980882
1784152468.7892,14:54:28.789,29,false,0.496255,-0.52887,0.330688,0.603882,0.972915,0.11194,-0.236942,-27.693517,-50.558238,15.818363
1784152468.8203,14:54:28.820,30,false,0.500261,-0.529297,0.328186,0.601563,0.960708,0.159792,-0.234989,-27.645765,-50.496997,15.896403
1784152468.8515,14:54:28.851,31,false,0.503456,-0.529541,0.326477,0.599609,0.967544,0.144656,-0.236454,-27.587834,-50.322249,15.981593
1784152468.8826,14:54:28.882,0,false,0.505904,-0.53009,0.324707,0.598022,0.949966,0.158816,-0.218875,-27.610465,-50.045346,15.953587
1784152468.914,14:54:28.914,1,false,0.509194,-0.530884,0.321167,0.596436,0.914809,0.167117,-0.229618,-27.600925,-49.826041,15.898474
1784152468.9453,14:54:28.945,2,false,0.511856,-0.531189,0.318115,0.59552,0.902113,0.157351,-0.227665,-27.562432,-49.658574,15.818964
1784152468.9766,14:54:28.976,3,false,0.516763,-0.531555,0.312256,0.594055,0.922133,0.178836,-0.232547,-27.512834,-49.448038,15.702544
1784152469.008,14:54:29.008,4,false,0.518533,-0.531799,0.310059,0.593445,0.946059,0.200809,-0.238895,-27.498104,-49.303417,15.552905
1784152469.0393,14:54:29.039,5,false,0.52474,-0.532776,0.303345,0.590576,0.938247,0.232547,-0.250126,-27.619431,-48.933997,15.612629
1784152469.0707,14:54:29.070,6,false,0.528989,-0.533386,0.299011,0.58844,0.929458,0.221317,-0.252079,-27.504318,-48.751057,15.531797
1784152469.1019,14:54:29.101,7,false,0.535088,-0.533142,0.293823,0.585754,0.958755,0.250614,-0.258915,-27.385762,-48.496689,15.444094
1784152469.133,14:54:29.133,8,false,0.53845,-0.532471,0.291809,0.58429,0.971939,0.255009,-0.273564,-27.458508,-48.148126,15.395068
1784152469.1642,14:54:29.164,9,false,0.540427,-0.531738,0.290955,0.583557,0.949477,0.261357,-0.25745,-27.494072,-47.954051,15.276176
1784152469.1953,14:54:29.195,10,false,0.542827,-0.529053,0.291138,0.583679,0.949477,0.225711,-0.27747,-27.376541,-47.659752,15.139266
1784152469.2265,14:54:29.226,11,false,0.544044,-0.52655,0.291809,0.584473,0.95729,0.234012,-0.291142,-27.524978,-47.439744,15.045954
1784152469.2576,14:54:29.257,12,false,0.545046,-0.522888,0.294067,0.585693,0.98854,0.233524,-0.283818,-27.553895,-47.346415,14.932066
1784152469.2889,14:54:29.288,13,false,0.544648,-0.52124,0.296143,0.586487,0.953872,0.224735,-0.2804,-27.550012,-47.202602,14.769751
1784152469.3203,14:54:29.320,14,false,0.543629,-0.519775,0.298523,0.587524,0.962661,0.212039,-0.284794,-27.456795,-46.983449,14.504037
1784152469.3516,14:54:29.351,15,false,0.540745,-0.517151,0.303345,0.590027,0.933364,0.187137,-0.285283,-27.567299,-47.040425,14.264895
1784152469.383,14:54:29.383,16,false,0.539657,-0.514893,0.307434,0.590881,0.931899,0.173465,-0.276005,-27.472353,-47.031889,14.229113
1784152469.4141,14:54:29.414,17,false,0.538831,-0.513,0.310852,0.591492,0.914321,0.139284,-0.271611,-27.446717,-46.964391,14.181955
1784152469.4452,14:54:29.445,18,false,0.538495,-0.511047,0.314514,0.591553,0.941665,0.143679,-0.271611,-27.483459,-47.098043,14.229236
1784152469.4764,14:54:29.476,19,false,0.538971,-0.510376,0.316162,0.59082,0.938735,0.147585,-0.285771,-27.531482,-47.173468,14.241881
1784152469.5075,14:54:29.507,20,false,0.53995,-0.510315,0.317322,0.589355,0.948013,0.167117,-0.266728,-27.484979,-47.211442,14.238308
1784152469.5387,14:54:29.538,21,false,0.540077,-0.510559,0.317505,0.588928,0.953872,0.176883,-0.27747,-27.413219,-47.230666,14.115461
1784152469.5698,14:54:29.569,22,false,0.540509,-0.511047,0.318359,0.587646,0.95436,0.185672,-0.270146,-27.348634,-47.292829,14.139484
1784152469.6009,14:54:29.600,23,false,0.540476,-0.510925,0.319397,0.587219,0.959731,0.182742,-0.267216,-27.260601,-47.348775,14.235873
1784152469.6321,14:54:29.632,24,false,0.539456,-0.509583,0.322021,0.587891,0.955337,0.193973,-0.269657,-27.271094,-47.443988,14.202993
1784152469.6634,14:54:29.663,25,false,0.538108,-0.507874,0.324402,0.589294,0.946059,0.169558,-0.266728,-27.295491,-47.619403,14.158447
1784152469.6948,14:54:29.694,26,false,0.537001,-0.505615,0.327087,0.590759,0.948989,0.181765,-0.273075,-27.227726,-47.762323,14.237987
1784152469.7261,14:54:29.726,27,false,0.534176,-0.502136,0.331299,0.593933,0.944106,0.143191,-0.27454,-27.25646,-47.875997,14.324526
1784152469.7574,14:54:29.757,28,false,0.532432,-0.499695,0.334167,0.595947,0.939223,0.15198,-0.279911,-27.237459,-47.993257,14.522042
1784152469.7888,14:54:29.788,29,false,0.530623,-0.497437,0.336914,0.5979,0.946059,0.118288,-0.277958,-27.250267,-48.098791,14.565222
1784152469.8201,14:54:29.820,30,false,0.527756,-0.494751,0.340576,0.600586,0.939223,0.099245,-0.287236,-27.052439,-48.403126,14.544269
1784152469.8515,14:54:29.851,31,false,0.526124,-0.493347,0.342651,0.60199,0.955825,0.101198,-0.28333,-27.158517,-48.64712,14.480549
1784152469.8828,14:54:29.882,0,false,0.524039,-0.491699,0.345093,0.60376,0.948989,0.080201,-0.264286,-27.164265,-49.04616,14.408248
1784152469.9139,14:54:29.913,1,false,0.523421,-0.491211,0.345764,0.604309,0.950454,0.086549,-0.290166,-27.094668,-49.106219,14.373084
1784152469.9451,14:54:29.945,2,false,0.522381,-0.489929,0.347656,0.605164,0.969009,0.077272,-0.278935,-27.017077,-49.324765,14.43116
1784152469.9762,14:54:29.976,3,false,0.521752,-0.489258,0.348694,0.605652,0.955825,0.085084,-0.267704,-27.051923,-49.521456,14.45352
1784152470.0074,14:54:30.007,4,false,0.520775,-0.488586,0.349609,0.606506,0.950942,0.078248,-0.276982,-26.918791,-49.713432,14.443737
1784152470.0387,14:54:30.038,5,false,0.520047,-0.487915,0.350464,0.607178,0.963638,0.078737,-0.2804,-26.948511,-49.960979,14.509701
1784152470.07,14:54:30.070,6,false,0.52001,-0.487671,0.350647,0.6073,0.949966,0.079713,-0.272099,-27.005167,-50.228634,14.569069
1784152470.1014,14:54:30.101,7,false,0.519557,-0.487183,0.351257,0.607727,0.954849,0.079713,-0.273075,-26.95148,-50.469522,14.547731
1784152470.1327,14:54:30.132,8,false,0.519254,-0.486816,0.351685,0.608032,0.959731,0.073854,-0.279911,-26.992885,-50.656415,14.513573
1784152470.1641,14:54:30.164,9,false,0.518692,-0.486572,0.352112,0.608459,0.953384,0.078737,-0.28333,-26.970334,-50.779756,14.467877
1784152470.1954,14:54:30.195,10,false,0.518237,-0.486511,0.352234,0.608826,0.958267,0.073854,-0.284306,-26.860315,-50.905717,14.366935
1784152470.2265,14:54:30.226,11,false,0.517653,-0.486389,0.352417,0.609314,0.951431,0.073365,-0.278935,-26.851021,-51.078898,14.305995
1784152470.2577,14:54:30.257,12,false,0.517057,-0.486145,0.352783,0.609802,0.951919,0.072877,-0.274052,-26.902472,-51.100176,14.29601
1784152470.2888,14:54:30.288,13,false,0.516851,-0.485901,0.35321,0.609924,0.959731,0.065553,-0.283818,-26.888963,-51.104372,14.406655
1784152470.32,14:54:30.320,14,false,0.516587,-0.485718,0.353638,0.610046,0.952895,0.066529,-0.272099,-26.846896,-51.108149,14.476327
1784152470.3513,14:54:30.351,15,false,0.516596,-0.485474,0.354065,0.609985,0.975845,0.084108,-0.279423,-26.838944,-51.111547,14.688571
1784152470.3824,14:54:30.382,16,false,0.516101,-0.485718,0.353821,0.610352,0.962173,0.072389,-0.269169,-26.786926,-51.309006,14.640329
1784152470.4138,14:54:30.413,17,false,0.516002,-0.485657,0.353943,0.610413,0.952407,0.059205,-0.27747,-26.814879,-51.41195,14.596911
1784152470.4451,14:54:30.445,18,false,0.5158,-0.485718,0.353943,0.610535,0.959731,0.079225,-0.26038,-26.810128,-51.459738,14.542881
1784152470.4765,14:54:30.476,19,false,0.515628,-0.485901,0.353943,0.610535,0.96022,0.066041,-0.274052,-26.731084,-51.577517,14.628838
1784152470.5078,14:54:30.507,20,false,0.515933,-0.48584,0.354004,0.610291,0.945571,0.0636,-0.273075,-26.914159,-51.728379,14.631431
1784152470.5391,14:54:30.539,21,false,0.516013,-0.486206,0.353699,0.610107,0.961685,0.066529,-0.272099,-26.794804,-51.744524,14.648718
1784152470.5705,14:54:30.570,22,false,0.515956,-0.486267,0.353699,0.610107,0.958755,0.068482,-0.282353,-26.687384,-51.714193,14.724092
1784152470.6018,14:54:30.601,23,false,0.515826,-0.486328,0.353699,0.610168,0.941176,0.067994,-0.273564,-26.575753,-51.74671,14.747067
1784152470.633,14:54:30.633,24,false,0.515311,-0.486572,0.353271,0.610657,0.950942,0.085084,-0.276005,-26.669684,-51.716161,14.678021
1784152470.6641,14:54:30.664,25,false,0.514932,-0.486755,0.353149,0.610901,0.957778,0.065064,-0.27454,-26.679454,-51.733528,14.825234
1784152470.6953,14:54:30.695,26,false,0.514963,-0.486633,0.353271,0.610901,0.969497,0.067018,-0.270146,-26.673292,-51.644481,14.808187
1784152470.7264,14:54:30.726,27,false,0.514777,-0.486633,0.353333,0.611023,0.953384,0.078248,-0.266239,-26.652793,-51.698924,14.762937
1784152470.7575,14:54:30.757,28,false,0.514544,-0.486694,0.353271,0.611206,0.957778,0.060182,-0.264286,-26.798836,-51.807737,14.677351
1784152470.7889,14:54:30.788,29,false,0.514839,-0.486511,0.353516,0.610962,0.946548,0.061158,-0.267216,-26.646151,-51.741177,14.869492
1784152470.8202,14:54:30.820,30,false,0.514897,-0.48645,0.353516,0.610962,0.949477,0.072389,-0.281865,-26.538643,-51.920535,14.77325
1784152470.8516,14:54:30.851,31,false,0.514893,-0.486389,0.353394,0.611084,0.965103,0.061158,-0.278935,-26.636286,-51.917464,14.776355
1784152470.8829,14:54:30.882,0,false,0.514821,-0.486389,0.353394,0.611145,0.961685,0.064576,-0.276982,-26.604533,-51.884793,14.824012
1784152470.9142,14:54:30.914,1,false,0.515008,-0.486267,0.353394,0.611084,0.960708,0.068482,-0.292607,-26.740448,-51.810528,14.747272
1784152470.9454,14:54:30.945,2,false,0.514729,-0.486389,0.35321,0.611328,0.960708,0.066041,-0.2804,-26.713233,-51.624058,14.648298
1784152470.9765,14:54:30.976,3,false,0.51461,-0.48645,0.353088,0.61145,0.969009,0.074342,-0.28333,-26.68874,-51.575866,14.589129
1784152471.0077,14:54:31.007,4,false,0.514491,-0.486511,0.352966,0.611572,0.949477,0.069947,-0.272099,-26.68165,-51.652124,14.595693
1784152471.0388,14:54:31.038,5,false,0.514356,-0.486633,0.352783,0.611694,0.944594,0.076295,-0.276005,-26.660315,-51.675894,14.467015
1784152471.0699,14:54:31.069,6,false,0.51434,-0.486694,0.352722,0.611694,0.954849,0.071412,-0.272099,-26.626159,-51.74215,14.545606
1784152471.1011,14:54:31.101,7,false,0.514443,-0.486694,0.352783,0.611572,0.961685,0.080201,-0.268681,-26.625327,-51.622333,14.406983
1784152471.1322,14:54:31.132,8,false,0.514131,-0.486938,0.352478,0.611816,0.949477,0.07483,-0.274052,-26.445132,-51.664037,14.491577
1784152471.1636,14:54:31.163,9,false,0.514242,-0.486633,0.352844,0.611755,0.943618,0.067506,-0.280888,-26.522218,-51.791293,14.477988
1784152471.1949,14:54:31.194,10,false,0.514133,-0.48645,0.353149,0.611816,0.944594,0.065553,-0.271122,-26.471965,-51.831054,14.465758
1784152471.2262,14:54:31.226,11,false,0.514019,-0.486328,0.353271,0.611938,0.954849,0.069459,-0.271611,-26.501506,-51.762162,14.454751
1784152471.2576,14:54:31.257,12,false,0.513811,-0.48645,0.353088,0.612122,0.95436,0.062623,-0.275029,-26.453324,-51.849698,14.489706
1784152471.2889,14:54:31.288,13,false,0.513915,-0.48645,0.353149,0.612,0.956313,0.063111,-0.27454,-26.40996,-51.853712,14.551073
1784152471.3203,14:54:31.320,14,false,0.513941,-0.486511,0.353027,0.612,0.963149,0.067018,-0.291142,-26.430748,-51.902185,14.696027
1784152471.3516,14:54:31.351,15,false,0.514029,-0.48645,0.353088,0.611938,0.945571,0.071412,-0.278935,-26.434503,-51.781319,14.76667
1784152471.3827,14:54:31.382,16,false,0.513852,-0.486572,0.352966,0.612061,0.947524,0.067994,-0.285771,-26.527605,-51.956662,14.815295
1784152471.4139,14:54:31.413,17,false,0.513806,-0.486633,0.352844,0.612122,0.963638,0.067994,-0.279911,-26.476813,-51.979887,14.814196
1784152471.445,14:54:31.445,18,false,0.513551,-0.486816,0.352539,0.612366,0.951431,0.069459,-0.276982,-26.50587,-52.075558,14.768345
1784152471.4762,14:54:31.476,19,false,0.51367,-0.486755,0.352661,0.612244,0.950942,0.066529,-0.277958,-26.457251,-52.131754,14.831756
1784152471.5073,14:54:31.507,20,false,0.513728,-0.486694,0.352661,0.612244,0.962661,0.073854,-0.279423,-26.443402,-52.227192,14.814057
1784152471.5386,14:54:31.538,21,false,0.513612,-0.486816,0.352661,0.612244,0.956313,0.068482,-0.278935,-26.475799,-52.298133,14.738312
1784152471.57,14:54:31.570,22,false,0.51334,-0.486938,0.352783,0.612305,0.962661,0.067018,-0.287236,-26.549819,-52.466657,14.774819
1784152471.6013,14:54:31.601,23,false,0.513305,-0.487061,0.353088,0.612061,0.963638,0.063111,-0.276005,-26.377174,-52.498697,14.792721
1784152471.6327,14:54:31.632,24,false,0.513456,-0.487,0.353271,0.611877,0.958267,0.065553,-0.271122,-26.311518,-52.572395,14.853695
1784152471.664,14:54:31.664,25,false,0.513106,-0.487183,0.35321,0.612061,0.950454,0.058228,-0.271611,-26.252427,-52.713492,14.848756
1784152471.6953,14:54:31.695,26,false,0.513033,-0.487183,0.35321,0.612122,0.956802,0.057252,-0.271611,-26.363737,-52.675987,14.859264
1784152471.7267,14:54:31.726,27,false,0.513122,-0.487122,0.353271,0.612061,0.966567,0.068482,-0.278935,-26.329332,-52.731956,14.883676
1784152471.7578,14:54:31.757,28,false,0.51323,-0.487061,0.353516,0.611877,0.952407,0.066041,-0.276005,-26.373136,-52.901959,14.935554
1784152471.789,14:54:31.789,29,false,0.513291,-0.487061,0.353638,0.611755,0.956802,0.065064,-0.274052,-26.322837,-52.890469,14.937383
1784152471.8201,14:54:31.820,30,false,0.513399,-0.487,0.353882,0.611572,0.952895,0.068971,-0.270634,-26.337383,-52.895082,15.058659
1784152471.8512,14:54:31.851,31,false,0.513579,-0.486938,0.354126,0.611328,0.952895,0.068482,-0.276982,-26.365429,-52.839418,15.048177
1784152471.8824,14:54:31.882,0,false,0.513668,-0.486877,0.354187,0.611267,0.958755,0.070436,-0.269657,-26.600023,-52.849136,15.053698
1784152471.9135,14:54:31.913,1,false,0.513936,-0.486755,0.354492,0.610962,0.965591,0.053834,-0.27747,-26.676574,-52.723298,14.894174
1784152471.9449,14:54:31.944,2,false,0.513783,-0.486694,0.354797,0.610962,0.966079,0.058717,-0.275029,-26.506208,-52.669859,14.810417
1784152471.9762,14:54:31.976,3,false,0.513959,-0.486572,0.354919,0.61084,0.947036,0.061158,-0.267216,-26.562233,-52.681579,14.82476
1784152472.0075,14:54:32.007,4,false,0.513932,-0.486633,0.35498,0.610779,0.945571,0.072877,-0.275517,-26.567793,-52.647266,14.837668
1784152472.0389,14:54:32.038,5,false,0.514053,-0.486755,0.355164,0.610474,0.966567,0.069459,-0.259892,-26.572798,-52.736014,14.849285
1784152472.0702,14:54:32.070,6,false,0.514155,-0.486755,0.355225,0.610352,0.959243,0.065064,-0.257939,-26.592256,-52.78598,14.844787
1784152472.1016,14:54:32.101,7,false,0.514143,-0.486755,0.355347,0.610291,0.956313,0.071412,-0.255985,-26.57986,-52.651504,14.945416
1784152472.1327,14:54:32.132,8,false,0.514464,-0.486633,0.355469,0.610046,0.966567,0.066041,-0.267704,-26.568704,-52.78469,15.11075
1784152472.1639,14:54:32.163,9,false,0.514643,-0.486572,0.355713,0.609802,0.968032,0.061158,-0.256474,-26.66334,-52.829789,15.184783
