Timestamp,Local time,Counter,Interpolated,Accelerometer X,Accelerometer Y,Accelerometer Z,Magnetometer X,Magnetometer Y,Magnetometer Z,Quaternion 0,Quaternion 1,Quaternion 2,Quaternion 3
1785194375.0118,16:19:35.011,14,false,0.275598,-0.569397,0.262695,0.728577,0.98439,-0.086427,-0.209964,-24.548226,-49.03809,11.444987
1785194375.0431,16:19:35.043,15,false,0.275633,-0.569458,0.262695,0.728516,0.988296,-0.06836,-0.211917,-24.590695,-49.128864,11.422027
1785194375.0744,16:19:35.074,16,false,0.275546,-0.569641,0.26239,0.728516,0.980484,-0.061036,-0.208499,-24.494332,-49.120837,11.266778
1785194375.1058,16:19:35.105,17,false,0.275559,-0.569641,0.262207,0.728577,0.98439,-0.06006,-0.214847,-24.287975,-49.083706,11.276592
1785194375.137,16:19:35.137,18,false,0.275627,-0.569458,0.262024,0.72876,0.992691,-0.073732,-0.220218,-24.371423,-49.050288,11.255517
1785194375.1684,16:19:35.168,19,false,0.276083,-0.569153,0.262207,0.72876,0.995621,-0.069825,-0.216312,-24.416619,-49.09498,11.341226
1785194375.1997,16:19:35.199,20,false,0.276115,-0.569031,0.262268,0.728821,0.98146,-0.062989,-0.224125,-24.32271,-48.970712,11.358549
1785194375.2308,16:19:35.230,21,false,0.275909,-0.569031,0.262146,0.728943,0.993668,-0.0542,-0.214847,-24.298007,-49.05327,11.359187
1785194375.262,16:19:35.262,22,false,0.275796,-0.569092,0.261963,0.729004,0.988296,-0.070802,-0.220706,-24.305683,-49.022895,11.255083
1785194375.2931,16:19:35.293,23,false,0.275899,-0.569092,0.262024,0.728943,0.989761,-0.056153,-0.214847,-24.297637,-48.980604,11.325882
1785194375.3243,16:19:35.324,24,false,0.276173,-0.569031,0.262207,0.728821,0.991714,-0.059571,-0.211917,-24.305349,-49.062173,11.404555
1785194375.3554,16:19:35.355,25,false,0.276299,-0.56897,0.262207,0.728821,0.98146,-0.068849,-0.21973,-24.31229,-49.030908,11.430499
1785194375.3865,16:19:35.386,26,false,0.276096,-0.569153,0.262024,0.728821,0.992691,-0.070802,-0.221683,-24.258722,-48.987815,11.483756
1785194375.4179,16:19:35.417,27,false,0.276314,-0.569153,0.261963,0.72876,0.988785,-0.063966,-0.218753,-24.135742,-49.053709,11.412057
1785194375.4492,16:19:35.449,28,false,0.275917,-0.569458,0.261719,0.72876,0.986831,-0.059571,-0.21973,-24.249367,-48.933568,11.467159
1785194375.4806,16:19:35.480,29,false,0.276294,-0.569397,0.261963,0.728577,0.988785,-0.062013,-0.207034,-24.261906,-49.064702,11.561612
1785194375.5119,16:19:35.511,30,false,0.276093,-0.569641,0.261475,0.728638,0.98439,-0.065431,-0.214359,-24.318053,-48.883645,11.541943
1785194375.543,16:19:35.543,31,false,0.276225,-0.569946,0.260498,0.728699,0.987808,-0.078126,-0.220706,-24.204093,-48.900141,11.419563
1785194375.5742,16:19:35.574,0,false,0.277713,-0.570618,0.258118,0.728455,0.965835,-0.080079,-0.213382,-24.266022,-48.959848,11.33933
1785194375.6053,16:19:35.605,1,false,0.284125,-0.573608,0.250061,0.72644,0.988296,-0.07129,-0.217288,-24.321757,-48.789277,11.371797
1785194375.6365,16:19:35.636,2,false,0.289155,-0.576294,0.242615,0.724854,1.00148,-0.056153,-0.223148,-24.401827,-48.531087,11.29634
1785194375.6676,16:19:35.667,3,false,0.295617,-0.579834,0.232178,0.722839,0.999527,0.000488,-0.218265,-24.47389,-48.253853,11.303198
1785194375.6987,16:19:35.698,4,false,0.298848,-0.581604,0.226196,0.721985,0.98732,0.041016,-0.229007,-24.598561,-48.064159,11.189739
1785194375.7299,16:19:35.729,5,false,0.301025,-0.582825,0.22168,0.721497,0.994644,0.060548,-0.226566,-24.740674,-47.669126,11.147442
1785194375.761,16:19:35.761,6,false,0.30111,-0.584412,0.216736,0.72168,1.00734,0.083497,-0.224125,-24.644267,-47.283689,11.079466
1785194375.7924,16:19:35.792,7,false,0.297867,-0.585815,0.213745,0.722778,0.993668,0.139651,-0.223636,-24.617316,-46.95175,11.078104
1785194375.8237,16:19:35.823,8,false,0.291979,-0.587341,0.210632,0.724854,0.973159,0.116213,-0.21973,-24.593061,-46.757681,11.106786
1785194375.855,16:19:35.855,9,false,0.279487,-0.589417,0.204407,0.729858,0.978531,0.077638,-0.226566,-24.4516,-46.478342,11.102691
1785194375.8864,16:19:35.886,10,false,0.269703,-0.59021,0.200134,0.73407,0.968765,0.0542,-0.220706,-24.563547,-46.182076,10.949468
1785194375.9177,16:19:35.917,11,false,0.254813,-0.590271,0.194885,0.740723,0.978531,0.023438,-0.224125,-24.469899,-46.184605,10.886336
1785194375.9491,16:19:35.949,12,false,0.250079,-0.59021,0.193298,0.742798,0.977066,-0.010742,-0.234379,-24.520201,-45.977528,10.814564
1785194375.9802,16:19:35.980,13,false,0.237882,-0.590454,0.187378,0.748108,0.991226,-0.05713,-0.255375,-24.505657,-45.701435,10.869599
1785194376.0113,16:19:36.011,14,false,0.231967,-0.591064,0.182556,0.750671,0.989761,-0.061036,-0.259281,-24.343029,-45.527721,10.814455
1785194376.0425,16:19:36.042,15,false,0.225705,-0.592957,0.174805,0.75293,1.00734,-0.079591,-0.269535,-24.361156,-45.311563,10.779778
1785194376.0738,16:19:36.073,16,false,0.223179,-0.594727,0.169861,0.753418,0.989761,-0.055665,-0.25977,-24.332609,-45.027298,10.658846
1785194376.105,16:19:36.105,17,false,0.221662,-0.596863,0.1651,0.753235,1.002945,-0.041016,-0.243656,-24.277009,-44.711644,10.564961
1785194376.1361,16:19:36.136,18,false,0.222266,-0.599976,0.159302,0.751831,0.980972,0.004883,-0.225589,-24.256877,-44.48737,10.390742
1785194376.1674,16:19:36.167,19,false,0.222671,-0.602051,0.155762,0.750793,0.985855,0.011719,-0.228031,-24.283619,-44.225709,10.398436
1785194376.1988,16:19:36.198,20,false,0.223604,-0.603943,0.152954,0.749573,0.983902,0.045411,-0.209476,-24.217964,-44.020121,10.285731
1785194376.2301,16:19:36.230,21,false,0.224785,-0.606323,0.149536,0.747986,0.971206,0.048341,-0.209964,-24.21869,-43.730416,10.333834
1785194376.2615,16:19:36.261,22,false,0.225386,-0.607483,0.148499,0.74707,0.977066,0.049805,-0.214847,-24.234297,-43.499588,10.332266
1785194376.2926,16:19:36.292,23,false,0.226921,-0.608276,0.149353,0.745789,0.989273,0.018555,-0.211917,-24.367974,-43.037628,10.405624
1785194376.3239,16:19:36.323,24,false,0.229728,-0.607422,0.152466,0.744995,0.979995,-0.012207,-0.221683,-24.308838,-42.891033,10.441738
1785194376.3552,16:19:36.355,25,false,0.233864,-0.605164,0.158325,0.744324,1.003433,-0.084962,-0.249516,-24.31543,-42.669375,10.459287
1785194376.3863,16:19:36.386,26,false,0.247491,-0.598755,0.176147,0.741089,1.016129,-0.120607,-0.285161,-24.381179,-42.709144,10.385358
1785194376.4175,16:19:36.417,27,false,0.261864,-0.593079,0.193665,0.736328,1.008804,-0.114748,-0.281254,-24.425398,-42.729982,10.303868
1785194376.4486,16:19:36.448,28,false,0.291463,-0.582092,0.226379,0.724548,0.997086,-0.112795,-0.303227,-24.495104,-42.928182,10.380065
1785194376.4797,16:19:36.479,29,false,0.303444,-0.577942,0.238647,0.718994,1.023453,-0.023926,-0.318853,-24.453162,-43.256101,10.478551
1785194376.5111,16:19:36.511,30,false,0.341055,-0.566162,0.275574,0.697998,0.955093,0.027344,-0.29395,-24.505137,-43.640951,10.552234
1785194376.5424,16:19:36.542,31,false,0.368012,-0.557617,0.298462,0.68158,0.942397,0.039551,-0.284672,-24.477146,-44.062085,10.827902
1785194376.5738,16:19:36.573,0,false,0.407394,-0.545654,0.328796,0.654358,1.003433,0.140627,-0.25977,-24.75103,-44.620552,11.25545
1785194376.6051,16:19:36.605,1,false,0.429655,-0.539795,0.34552,0.636108,0.958999,0.22266,-0.200687,-24.982573,-45.287664,11.625289
1785194376.6365,16:19:36.636,2,false,0.447584,-0.535828,0.357788,0.620117,0.953628,0.247074,-0.147951,-25.161053,-45.648804,12.003006
1785194376.6678,16:19:36.667,3,false,0.465694,-0.531982,0.368835,0.603394,0.948745,0.241703,-0.104982,-25.306732,-46.108414,12.372859
1785194376.6991,16:19:36.699,4,false,0.472169,-0.530273,0.372192,0.597778,0.974136,0.244633,-0.101564,-25.497658,-46.566925,12.974895
1785194376.7303,16:19:36.730,5,false,0.474823,-0.529175,0.372925,0.596191,0.980972,0.206546,-0.1084,-25.729306,-46.934723,13.382144
1785194376.7614,16:19:36.761,6,false,0.472761,-0.52832,0.370483,0.600098,0.990249,0.14844,-0.14844,-25.818159,-47.475096,13.853344
1785194376.7926,16:19:36.792,7,false,0.468683,-0.527954,0.367737,0.605286,0.992691,0.123537,-0.165042,-25.957943,-47.767031,14.157794
1785194376.8237,16:19:36.823,8,false,0.460615,-0.527405,0.363098,0.614685,0.985855,0.038087,-0.197269,-26.008978,-48.209218,14.461706
1785194376.8548,16:19:36.854,9,false,0.458141,-0.527161,0.361816,0.617493,1.003922,-0.00293,-0.208499,-25.905372,-48.681956,14.70532
1785194376.886,16:19:36.886,10,false,0.45185,-0.52655,0.359192,0.624146,1.026871,-0.008301,-0.210452,-25.886896,-49.002744,14.745126
1785194376.9173,16:19:36.917,11,false,0.448336,-0.526489,0.358154,0.627319,1.00734,-0.017578,-0.204105,-25.900174,-49.171822,14.85572
1785194376.9487,16:19:36.948,12,false,0.445373,-0.525818,0.358337,0.629883,0.985367,-0.018067,-0.195315,-25.882218,-49.518392,15.030025
1785194376.98,16:19:36.980,13,false,0.444736,-0.525146,0.358826,0.630615,0.987808,-0.02002,-0.212406,-25.851103,-49.800397,15.127083
1785194377.0113,16:19:37.011,14,false,0.445154,-0.524353,0.35968,0.630493,1.014176,-0.018067,-0.206058,-25.867961,-50.143925,15.124713
1785194377.0427,16:19:37.042,15,false,0.446932,-0.522888,0.361633,0.629333,1.000504,0.02295,-0.192874,-25.883133,-50.348423,15.197349
1785194377.0738,16:19:37.073,16,false,0.448121,-0.522095,0.362793,0.628479,0.996109,0.030762,-0.19678,-25.896788,-50.457702,15.33749
1785194377.105,16:19:37.105,17,false,0.449862,-0.521179,0.36438,0.627075,0.985367,0.035157,-0.18262,-25.909078,-50.735499,15.418756
1785194377.1361,16:19:37.136,18,false,0.450585,-0.520813,0.364746,0.626648,0.998062,0.047852,-0.183108,-25.994908,-50.88084,15.491895
1785194377.1672,16:19:37.167,19,false,0.450648,-0.520569,0.364807,0.62677,0.992691,0.042481,-0.195804,-26.042247,-51.086416,15.602582
1785194377.1986,16:19:37.198,20,false,0.450058,-0.520325,0.364624,0.627502,0.98732,0.007324,-0.195315,-25.965221,-51.301342,15.58257
1785194377.2297,16:19:37.229,21,false,0.449268,-0.520264,0.364319,0.628296,0.995621,0.018555,-0.189944,-25.94076,-51.464868,15.684189
1785194377.2611,16:19:37.261,22,false,0.448711,-0.520081,0.364319,0.628845,0.994156,-0.001953,-0.204105,-26.023422,-51.641948,15.730785
1785194377.2924,16:19:37.292,23,false,0.448168,-0.519592,0.365051,0.629211,1.004898,-0.017578,-0.200198,-25.978186,-51.711598,15.832537
1785194377.3237,16:19:37.323,24,false,0.447824,-0.519226,0.365784,0.629333,0.986831,-0.001953,-0.187991,-25.892613,-51.744375,15.774575
1785194377.3551,16:19:37.355,25,false,0.447434,-0.518799,0.36676,0.629395,1.002945,-0.003906,-0.193362,-25.875413,-51.788828,15.737363
1785194377.3864,16:19:37.386,26,false,0.447396,-0.518616,0.367065,0.629395,1.000504,-0.006348,-0.194339,-25.874886,-51.739113,15.763688
1785194377.4178,16:19:37.417,27,false,0.446778,-0.518494,0.367676,0.629578,0.991226,0.001465,-0.187991,-25.949181,-52.053262,15.607934
1785194377.4491,16:19:37.449,28,false,0.446557,-0.518555,0.367859,0.629578,0.995621,-0.001953,-0.188968,-25.866508,-52.126641,15.542525
1785194377.4803,16:19:37.480,29,false,0.446196,-0.518921,0.367676,0.629639,0.996109,0.001953,-0.174319,-25.881826,-52.207637,15.678056
1785194377.5114,16:19:37.511,30,false,0.446012,-0.519165,0.367554,0.629639,1.002457,0.004395,-0.187015,-25.880658,-52.26558,15.605635
1785194377.5427,16:19:37.542,31,false,0.445784,-0.519287,0.367554,0.6297,0.994644,0.001953,-0.175296,-25.879607,-52.272866,15.645132
1785194377.5739,16:19:37.573,0,false,0.445897,-0.519165,0.367798,0.629578,0.995621,0.004883,-0.190433,-25.938476,-52.309332,15.695634
1785194377.605,16:19:37.605,1,false,0.446396,-0.518921,0.368164,0.629211,0.992691,0.01709,-0.181155,-25.931643,-52.357105,15.905578
1785194377.6362,16:19:37.636,2,false,0.446467,-0.51886,0.368164,0.629211,0.987808,-0.004883,-0.204105,-25.910539,-52.489823,15.855266
1785194377.6675,16:19:37.667,3,false,0.446523,-0.518738,0.368164,0.629272,0.990738,0.006348,-0.193851,-25.846685,-52.564408,15.780077
1785194377.6988,16:19:37.698,4,false,0.446564,-0.518616,0.368286,0.629272,0.991714,-0.011231,-0.189456,-25.744354,-52.661443,15.727361
1785194377.7302,16:19:37.730,5,false,0.446685,-0.518616,0.368347,0.62915,0.997574,-0.000977,-0.193851,-25.66721,-52.763728,15.664963
1785194377.7615,16:19:37.761,6,false,0.446878,-0.518555,0.368408,0.629028,1.005875,0.00293,-0.186526,-25.612734,-52.945507,15.698528
1785194377.7929,16:19:37.792,7,false,0.44707,-0.518494,0.368469,0.628906,0.988785,0.019043,-0.196292,-25.653429,-52.944616,15.609105
1785194377.824,16:19:37.824,8,false,0.447127,-0.518921,0.367798,0.628906,0.997574,0.010254,-0.183597,-25.645193,-52.854091,15.46881
1785194377.8551,16:19:37.855,9,false,0.447525,-0.52002,0.365967,0.628784,0.971695,0.02295,-0.180667,-25.802273,-52.937111,15.432267
1785194377.8863,16:19:37.886,10,false,0.450432,-0.526367,0.356018,0.627136,0.970718,0.063478,-0.167971,-25.779153,-52.847337,15.354517
1785194377.9174,16:19:37.917,11,false,0.452079,-0.530334,0.349487,0.626282,0.948257,0.061524,-0.167483,-25.773298,-52.781494,15.359311
1785194377.9486,16:19:37.948,12,false,0.454596,-0.54303,0.32605,0.626221,1.010269,0.123537,-0.196292,-25.708214,-52.453066,15.348671
1785194377.9797,16:19:37.979,13,false,0.452323,-0.551025,0.309998,0.629028,0.988785,0.173831,-0.202152,-25.858991,-52.202343,15.114788
1785194378.0108,16:19:38.010,14,false,0.441791,-0.561829,0.286438,0.638062,0.982437,0.237308,-0.224125,-25.830199,-51.707522,15.023925
1785194378.0422,16:19:38.042,15,false,0.430091,-0.567993,0.272156,0.64679,1.009293,0.241215,-0.237308,-25.759425,-51.262184,14.807562
1785194378.0735,16:19:38.073,16,false,0.41452,-0.573669,0.259094,0.657227,0.996109,0.235355,-0.247074,-25.680774,-50.726795,14.582929
1785194378.1049,16:19:38.104,17,false,0.38477,-0.581177,0.240662,0.675476,0.970718,0.168948,-0.269535,-25.684757,-50.035591,14.320943
1785194378.1362,16:19:38.136,18,false,0.362531,-0.585754,0.228699,0.687866,0.96437,0.145998,-0.260746,-25.613573,-49.548092,13.965526
1785194378.1675,16:19:38.167,19,false,0.340026,-0.589966,0.217163,0.699402,0.973648,0.090333,-0.261723,-25.624276,-48.899989,13.690511
1785194378.1989,16:19:38.198,20,false,0.307005,-0.594971,0.201233,0.715027,0.965835,0.028809,-0.25977,-25.439509,-48.346604,13.398137
1785194378.2302,16:19:38.230,21,false,0.286867,-0.597473,0.191895,0.723816,0.957046,0.009766,-0.263188,-25.303127,-47.908373,13.090138
1785194378.2614,16:19:38.261,22,false,0.261005,-0.600708,0.178101,0.734375,0.967788,0.000488,-0.244633,-25.195337,-47.379381,12.93257
1785194378.2925,16:19:38.292,23,false,0.253615,-0.601624,0.173523,0.737305,0.979019,-0.056153,-0.251469,-25.098325,-46.798611,12.686082
1785194378.3238,16:19:38.323,24,false,0.235803,-0.603943,0.16095,0.744141,1.012222,-0.092287,-0.266606,-25.011015,-46.201148,12.49415
1785194378.355,16:19:38.355,25,false,0.227762,-0.605347,0.153809,0.747009,1.005386,-0.074708,-0.259281,-24.827759,-45.798017,12.381227
1785194378.3861,16:19:38.386,26,false,0.220799,-0.60791,0.144043,0.748962,1.013199,-0.044923,-0.26807,-24.722644,-45.300614,12.189873
1785194378.4175,16:19:38.417,27,false,0.21786,-0.610901,0.136292,0.74884,1.014664,0.002441,-0.23975,-24.62804,-44.852951,11.987747
1785194378.4488,16:19:38.448,28,false,0.217494,-0.611877,0.134155,0.748535,0.986831,0.03418,-0.225101,-24.662528,-44.420147,11.760972
1785194378.4801,16:19:38.480,29,false,0.216584,-0.614624,0.129456,0.747375,0.983413,0.078126,-0.209476,-24.678613,-44.000716,11.646598
1785194378.5115,16:19:38.511,30,false,0.216107,-0.61615,0.127563,0.746582,0.991714,0.081544,-0.209476,-24.588412,-43.458735,11.558615
1785194378.5426,16:19:38.542,31,false,0.215161,-0.617554,0.127014,0.745789,0.995621,0.088869,-0.211429,-24.402555,-42.896184,11.658876
1785194378.5738,16:19:38.573,0,false,0.213671,-0.618042,0.127869,0.745667,0.980972,0.098634,-0.18262,-24.414729,-42.464656,11.689296
1785194378.6049,16:19:38.604,1,false,0.212358,-0.618164,0.129456,0.745667,0.986831,0.107912,-0.19678,-24.201379,-42.076282,11.716673
1785194378.636,16:19:38.636,2,false,0.208595,-0.617615,0.132874,0.746582,0.962417,0.063966,-0.172854,-24.30844,-41.726745,11.741313
1785194378.6672,16:19:38.667,3,false,0.205849,-0.616333,0.135193,0.747986,0.965347,0.057618,-0.189456,-24.389842,-41.546746,11.628905
1785194378.6983,16:19:38.698,4,false,0.203621,-0.614624,0.136536,0.749756,0.963394,0.027344,-0.218753,-24.328518,-41.295024,11.61746
1785194378.7295,16:19:38.729,5,false,0.202106,-0.612488,0.134949,0.752197,0.981949,-0.02002,-0.225589,-24.198558,-41.068474,11.577252
1785194378.7606,16:19:38.760,6,false,0.203868,-0.611694,0.131775,0.75293,0.997086,-0.035645,-0.229007,-24.26104,-40.849626,11.48125
1785194378.7919,16:19:38.791,7,false,0.210073,-0.611267,0.124878,0.752747,1.013199,-0.011719,-0.246098,-24.212597,-40.697523,11.409801
1785194378.8233,16:19:38.823,8,false,0.212955,-0.611328,0.12262,0.752258,1.011246,0.044434,-0.249516,-24.109182,-40.575585,11.195959
1785194378.8546,16:19:38.854,9,false,0.221311,-0.611755,0.117554,0.750305,1.008804,0.103517,-0.242191,-24.105833,-40.406025,11.138086
1785194378.886,16:19:38.886,10,false,0.227058,-0.612,0.116211,0.748596,1.012222,0.126467,-0.231449,-24.102818,-40.253422,11.130862
1785194378.9173,16:19:38.917,11,false,0.232404,-0.612732,0.116699,0.746277,0.994156,0.155764,-0.231937,-24.070197,-40.011401,10.959868
1785194378.9486,16:19:38.948,12,false,0.23385,-0.613037,0.119202,0.745178,0.98732,0.154788,-0.228519,-24.01093,-39.838445,10.91065
1785194378.98,16:19:38.980,13,false,0.234127,-0.613037,0.123169,0.744446,0.963394,0.156252,-0.212894,-23.76319,-39.832322,10.836446
1785194379.0111,16:19:39.011,14,false,0.232995,-0.612366,0.129944,0.744202,0.980972,0.113283,-0.215824,-23.809394,-39.826812,10.829478
1785194379.0423,16:19:39.042,15,false,0.23113,-0.611328,0.135925,0.744568,0.973159,0.097169,-0.223636,-23.776207,-39.776991,10.823207
1785194379.0734,16:19:39.073,16,false,0.229593,-0.609802,0.141907,0.745178,0.964858,0.061524,-0.204105,-23.851017,-39.806921,11.04187
1785194379.1045,16:19:39.104,17,false,0.228787,-0.606812,0.150024,0.746277,0.982925,0.005859,-0.229007,-23.888437,-39.87872,10.984452
1785194379.1357,16:19:39.135,18,false,0.229973,-0.604431,0.155884,0.746643,0.999039,-0.016114,-0.23682,-23.907162,-39.958293,10.94773
1785194379.1668,16:19:39.166,19,false,0.23598,-0.600342,0.165894,0.745911,0.985367,-0.096681,-0.267094,-23.804384,-40.134585,10.959541
1785194379.1982,16:19:39.198,20,false,0.243663,-0.596497,0.174988,0.744446,0.996597,-0.095705,-0.243656,-23.801606,-40.308203,10.985125
1785194379.2295,16:19:39.229,21,false,0.254472,-0.592102,0.18634,0.741577,1.009781,-0.06836,-0.269535,-23.843968,-40.658858,10.963289
1785194379.2608,16:19:39.260,22,false,0.276129,-0.5849,0.206848,0.73407,0.994156,-0.02002,-0.265141,-23.807324,-41.079124,10.943637
1785194379.2921,16:19:39.292,23,false,0.292617,-0.580139,0.221436,0.727173,0.990249,0.003906,-0.258305,-23.789299,-41.472318,11.015673
1785194379.3234,16:19:39.323,24,false,0.317592,-0.572632,0.242188,0.715942,0.975601,0.056641,-0.246586,-23.832891,-41.841147,10.990782
1785194379.3546,16:19:39.354,25,false,0.325491,-0.569824,0.249023,0.71228,0.962905,0.056153,-0.240726,-23.797355,-42.247861,10.96838
1785194379.3857,16:19:39.385,26,false,0.348043,-0.561279,0.267883,0.701477,0.956069,0.093263,-0.23389,-23.974726,-42.718581,10.858496
1785194379.4168,16:19:39.416,27,false,0.362119,-0.556091,0.277832,0.69458,0.971695,0.097169,-0.238773,-23.954915,-43.187091,10.968954
1785194379.448,16:19:39.448,28,false,0.380584,-0.548767,0.290466,0.685303,0.991226,0.086427,-0.235843,-24.11653,-43.743334,11.083319
1785194379.4791,16:19:39.479,29,false,0.390619,-0.544006,0.297913,0.680237,0.982437,0.089845,-0.244144,-23.992815,-44.423399,11.261018
1785194379.5103,16:19:39.510,30,false,0.398834,-0.53949,0.304749,0.676025,0.980484,0.075196,-0.234867,-24.105779,-44.930781,11.376085
1785194379.5414,16:19:39.541,31,false,0.409132,-0.533325,0.313293,0.670837,0.989273,0.054688,-0.243168,-24.252308,-45.492101,11.524507
1785194379.5727,16:19:39.572,0,false,0.414769,-0.529602,0.318542,0.667847,1.003922,0.055177,-0.243168,-24.339322,-45.92252,11.613225
1785194379.6041,16:19:39.604,1,false,0.41977,-0.526306,0.323669,0.664856,1.005875,0.056641,-0.237308,-24.477451,-46.444482,11.857564
1785194379.6354,16:19:39.635,2,false,0.424785,-0.522827,0.330078,0.661255,0.990738,0.062501,-0.231937,-24.482136,-47.093694,11.92793
1785194379.6668,16:19:39.666,3,false,0.427224,-0.521057,0.333496,0.659363,0.985367,0.036622,-0.227054,-24.51626,-47.5434,12.155752
1785194379.6981,16:19:39.698,4,false,0.428716,-0.519958,0.33606,0.657959,0.992203,0.030762,-0.223636,-24.591833,-47.933181,12.196299
1785194379.7294,16:19:39.729,5,false,0.429003,-0.519714,0.336548,0.657715,0.979019,0.041505,-0.231449,-24.58508,-48.5382,12.307561
1785194379.7606,16:19:39.760,6,false,0.429077,-0.519653,0.336548,0.657715,0.994156,0.02295,-0.235355,-24.638817,-48.888317,12.422651
1785194379.7919,16:19:39.791,7,false,0.428846,-0.519653,0.336365,0.657959,0.996109,0.012696,-0.231449,-24.522689,-49.143606,12.556139
1785194379.8231,16:19:39.823,8,false,0.428185,-0.519348,0.336365,0.65863,0.990738,0.004395,-0.23975,-24.657434,-49.537859,12.541694
1785194379.8542,16:19:39.854,9,false,0.428211,-0.518738,0.336914,0.658813,0.974624,-0.010742,-0.235355,-24.599259,-49.817918,12.70814
1785194379.8853,16:19:39.885,10,false,0.428376,-0.518005,0.33783,0.658813,0.99855,0.001465,-0.23682,-24.546902,-50.189601,12.678495
1785194379.9167,16:19:39.916,11,false,0.428587,-0.517273,0.338684,0.658813,0.989273,-0.010254,-0.238285,-24.544642,-50.434394,12.786398
1785194379.948,16:19:39.948,12,false,0.428622,-0.516846,0.339172,0.658875,0.987808,-0.005859,-0.232914,-24.647284,-50.594891,12.823697
1785194379.9794,16:19:39.979,13,false,0.428702,-0.516418,0.339722,0.658875,0.985855,-0.005371,-0.23682,-24.664894,-50.769246,12.827357
1785194380.0107,16:19:40.010,14,false,0.428518,-0.516174,0.340088,0.658997,0.979995,-0.008301,-0.243168,-24.605973,-50.971028,12.890467
1785194380.0421,16:19:40.042,15,false,0.428196,-0.516052,0.340088,0.659302,0.976577,-0.01416,-0.245121,-24.552944,-51.077862,12.947266
1785194380.0734,16:19:40.073,16,false,0.428197,-0.51593,0.340271,0.659302,0.995621,-0.015137,-0.235843,-24.520172,-51.263736,13.058201
1785194380.1047,16:19:40.104,17,false,0.428244,-0.515808,0.340515,0.659241,0.985367,-0.014649,-0.236332,-24.565446,-51.505791,13.053365
1785194380.1359,16:19:40.135,18,false,0.428716,-0.515564,0.340881,0.658936,0.983902,-0.00293,-0.242191,-24.680962,-51.67878,13.183597
1785194380.167,16:19:40.167,19,false,0.429044,-0.515442,0.341125,0.658691,0.982925,-0.013184,-0.236332,-24.710158,-51.834469,13.12136
1785194380.1982,16:19:40.198,20,false,0.429041,-0.515442,0.341248,0.65863,0.989273,-0.002441,-0.248539,-24.676618,-51.854959,13.125162
1785194380.2293,16:19:40.229,21,false,0.428779,-0.515625,0.341064,0.658752,0.977066,0.003906,-0.233402,-24.646432,-51.978077,13.053815
1785194380.2604,16:19:40.260,22,false,0.428629,-0.515991,0.340698,0.658752,0.989761,0.036622,-0.216312,-24.619265,-52.058975,13.243818
1785194380.2916,16:19:40.291,23,false,0.426438,-0.518799,0.337158,0.65979,0.982437,0.115724,-0.200687,-24.594815,-52.131784,13.340051
1785194380.3229,16:19:40.322,24,false,0.422553,-0.522705,0.330811,0.662415,0.962417,0.121584,-0.217777,-24.662533,-52.212265,13.411707
1785194380.3543,16:19:40.354,25,false,0.411262,-0.53064,0.314148,0.671265,0.9673,0.132326,-0.217777,-24.618802,-52.180022,13.326659
1785194380.3856,16:19:40.385,26,false,0.399531,-0.537659,0.298035,0.680054,0.979019,0.133791,-0.251469,-24.639259,-52.016418,13.205254
1785194380.4169,16:19:40.416,27,false,0.385033,-0.545471,0.279175,0.690125,0.974624,0.105959,-0.290532,-24.597856,-51.704682,13.036174
1785194380.4481,16:19:40.448,28,false,0.359676,-0.557922,0.24823,0.705505,0.988296,0.074708,-0.323247,-24.500777,-51.289536,12.719511
1785194380.4792,16:19:40.479,29,false,0.341068,-0.56604,0.227478,0.71521,0.979019,0.053223,-0.326177,-24.503129,-50.676642,12.34479
1785194380.5104,16:19:40.510,30,false,0.322354,-0.573364,0.208191,0.723877,0.965835,0.011231,-0.319341,-24.265985,-50.229715,12.037449
1785194380.5415,16:19:40.541,31,false,0.296437,-0.581909,0.183228,0.734802,0.979507,-0.011719,-0.323735,-24.157232,-49.528404,11.686073
1785194380.5726,16:19:40.572,0,false,0.281123,-0.586304,0.169495,0.740601,0.994156,-0.017578,-0.309087,-24.029446,-48.792547,11.369835
1785194380.6038,16:19:40.603,1,false,0.262442,-0.591553,0.153992,0.746643,0.994156,-0.004883,-0.289067,-23.869578,-48.130275,11.115128
1785194380.6349,16:19:40.634,2,false,0.251965,-0.594421,0.145691,0.749634,0.976577,0.0,-0.279789,-23.800466,-47.339831,10.960661
1785194380.6663,16:19:40.666,3,false,0.243481,-0.59668,0.139099,0.751892,0.981949,0.017578,-0.275395,-23.827988,-46.77797,10.89641
1785194380.6976,16:19:40.697,4,false,0.236501,-0.598389,0.133789,0.753723,0.991226,0.022461,-0.271977,-23.613496,-46.018079,10.554461
1785194380.7289,16:19:40.728,5,false,0.227791,-0.600647,0.127625,0.755676,0.98732,0.040528,-0.268559,-23.659715,-45.30427,10.426153
1785194380.7603,16:19:40.760,6,false,0.220501,-0.602539,0.123108,0.75708,0.974136,0.053712,-0.252934,-23.566727,-44.676796,10.220953
1785194380.7916,16:19:40.791,7,false,0.218656,-0.603088,0.121826,0.757385,0.982925,0.041993,-0.249027,-23.363408,-44.067207,10.14095
1785194380.823,16:19:40.823,8,false,0.213912,-0.604553,0.118774,0.758057,0.983413,0.06006,-0.242679,-23.329958,-43.593347,10.098854
1785194380.8543,16:19:40.854,9,false,0.211768,-0.605164,0.117554,0.758362,0.983413,0.044434,-0.249516,-23.344716,-43.062196,10.060969
1785194380.8854,16:19:40.885,10,false,0.209552,-0.605835,0.116882,0.758545,0.982925,0.06006,-0.240238,-23.283228,-42.614067,10.131548
1785194380.9166,16:19:40.916,11,false,0.208811,-0.606079,0.116943,0.758545,0.982925,0.067384,-0.234379,-23.272751,-42.240659,10.00067
1785194380.9477,16:19:40.947,12,false,0.208319,-0.606201,0.117188,0.758545,0.981949,0.069825,-0.240238,-23.248367,-41.919546,9.972603
1785194380.9789,16:19:40.978,13,false,0.207771,-0.606201,0.117371,0.758667,0.981949,0.072267,-0.23975,-23.241376,-41.675405,10.007158
1785194381.01,16:19:41.010,14,false,0.207235,-0.606079,0.117371,0.758911,0.989761,0.064942,-0.243656,-23.399576,-41.351002,10.113026
1785194381.0411,16:19:41.041,15,false,0.206242,-0.606018,0.117065,0.759277,0.972671,0.066407,-0.25391,-23.437279,-40.969316,9.998954
1785194381.0725,16:19:41.072,16,false,0.205538,-0.605957,0.116638,0.759583,0.979507,0.065919,-0.249027,-23.456258,-40.86506,9.926197
1785194381.1038,16:19:41.103,17,false,0.205225,-0.605957,0.116394,0.759705,0.994156,0.076661,-0.243168,-23.428478,-40.666553,9.9953
1785194381.1352,16:19:41.135,18,false,0.204504,-0.606018,0.11615,0.759888,0.98439,0.048829,-0.23682,-23.508152,-40.532758,10.042539
1785194381.1665,16:19:41.166,19,false,0.204435,-0.606018,0.116272,0.759888,0.980972,0.075685,-0.244144,-23.564906,-40.322619,10.100008
1785194381.1978,16:19:41.197,20,false,0.204019,-0.60614,0.115967,0.759949,0.995132,0.070314,-0.23682,-23.481399,-40.073679,10.062007
1785194381.2292,16:19:41.229,21,false,0.20376,-0.606262,0.115784,0.759949,0.988296,0.073243,-0.243656,-23.376335,-39.984218,9.982944
1785194381.2605,16:19:41.260,22,false,0.203506,-0.606018,0.115906,0.760193,0.977066,0.064942,-0.238773,-23.476178,-39.873795,9.941696
1785194381.2917,16:19:41.291,23,false,0.203526,-0.605835,0.116028,0.760315,0.990249,0.075196,-0.227054,-23.416498,-39.774414,10.05411
1785194381.3228,16:19:41.322,24,false,0.203247,-0.605469,0.116028,0.760681,0.980972,0.075196,-0.238773,-23.527278,-39.774695,10.095468
1785194381.3539,16:19:41.353,25,false,0.20329,-0.604858,0.116333,0.761108,0.977554,0.073732,-0.247074,-23.462488,-39.745039,10.147644
1785194381.3851,16:19:41.385,26,false,0.203893,-0.604431,0.116699,0.76123,0.987808,0.063966,-0.251469,-23.478946,-39.83798,10.119833
1785194381.4162,16:19:41.416,27,false,0.20367,-0.604187,0.11676,0.761475,0.977066,0.075196,-0.252445,-23.404035,-39.757135,10.154619
1785194381.4476,16:19:41.447,28,false,0.203617,-0.604187,0.116455,0.761536,0.978042,0.083009,-0.246586,-23.366523,-39.639512,10.185926
1785194381.4789,16:19:41.478,29,false,0.203028,-0.604248,0.115967,0.761719,0.98439,0.075196,-0.246098,-23.24304,-39.623375,10.04961
1785194381.5102,16:19:41.510,30,false,0.20248,-0.604248,0.115723,0.761902,0.982925,0.078614,-0.257328,-23.326304,-39.608852,10.031602
1785194381.5416,16:19:41.541,31,false,0.202467,-0.604187,0.115662,0.761963,0.972183,0.070802,-0.255375,-23.401242,-39.535966,10.090165
1785194381.5729,16:19:41.572,0,false,0.202182,-0.604187,0.115356,0.762085,0.989761,0.083497,-0.254398,-23.274287,-39.530183,10.008287
1785194381.6043,16:19:41.604,1,false,0.201342,-0.604187,0.114807,0.76239,0.974136,0.062501,-0.258305,-23.189934,-39.420302,9.934596
1785194381.6356,16:19:41.635,2,false,0.201281,-0.604065,0.114746,0.762512,0.983413,0.057618,-0.266117,-23.233648,-39.470948,9.972952
1785194381.6667,16:19:41.666,3,false,0.201036,-0.604004,0.114685,0.762634,0.982437,0.081544,-0.260746,-23.27299,-39.411852,10.082241
1785194381.6979,16:19:41.697,4,false,0.201071,-0.604004,0.114624,0.762634,0.979019,0.066896,-0.254398,-23.218675,-39.448388,10.195555
1785194381.729,16:19:41.729,5,false,0.200387,-0.604004,0.114197,0.762878,0.986831,0.060548,-0.258793,-23.304376,-39.451364,10.207814
1785194381.7602,16:19:41.760,6,false,0.200061,-0.604004,0.113953,0.763,0.981949,0.062989,-0.257328,-23.291784,-39.454041,10.039402
1785194381.7913,16:19:41.791,7,false,0.199226,-0.604309,0.112976,0.763123,0.977066,0.071778,-0.247562,-23.205681,-39.456451,9.9626
1785194381.8226,16:19:41.822,8,false,0.198679,-0.604614,0.112305,0.763123,0.989761,0.080079,-0.247562,-23.24782,-39.279174,9.893478
1785194381.854,16:19:41.854,9,false,0.19841,-0.604736,0.112122,0.763123,0.970718,0.070314,-0.249516,-23.166114,-39.448609,9.831268
1785194381.8853,16:19:41.885,10,false,0.198058,-0.604797,0.112,0.763184,0.972183,0.061524,-0.239261,-23.092579,-39.571193,9.879957
1785194381.9167,16:19:41.916,11,false,0.197774,-0.604858,0.111755,0.763245,0.985367,0.062501,-0.247074,-23.160982,-39.442257,9.908822
1785194381.948,16:19:41.948,12,false,0.197254,-0.604919,0.111511,0.763367,0.978042,0.069825,-0.247562,-23.08796,-39.490707,9.949755
1785194381.9794,16:19:41.979,13,false,0.197002,-0.60498,0.111206,0.763428,0.975113,0.063966,-0.240726,-23.02224,-39.429635,9.911825
1785194382.0105,16:19:42.010,14,false,0.196474,-0.605164,0.111145,0.763428,0.986343,0.058595,-0.244633,-22.963093,-39.404578,9.877689
1785194382.0416,16:19:42.041,15,false,0.196245,-0.605469,0.111145,0.763245,0.986831,0.070802,-0.247074,-22.954721,-39.411935,9.817058
1785194382.0728,16:19:42.072,16,false,0.196407,-0.605591,0.11145,0.763062,0.979995,0.048829,-0.247562,-23.096725,-39.418555,9.822306
1785194382.1039,16:19:42.103,17,false,0.196374,-0.605774,0.112183,0.762817,0.989761,0.051759,-0.248051,-23.015175,-39.454422,9.782167
1785194382.1351,16:19:42.135,18,false,0.196899,-0.606079,0.113342,0.762268,0.980484,0.056641,-0.235843,-22.94178,-39.56147,9.77595
1785194382.1664,16:19:42.166,19,false,0.197858,-0.606262,0.11438,0.761719,0.985367,0.0542,-0.235843,-23.144893,-39.538184,9.815216
1785194382.1977,16:19:42.197,20,false,0.199132,-0.606628,0.115906,0.760864,0.988785,0.063966,-0.247074,-23.282834,-39.666764,9.805694
1785194382.2291,16:19:42.229,21,false,0.199604,-0.60675,0.116455,0.760559,0.983413,0.065919,-0.245609,-23.406981,-39.707717,9.797125
1785194382.2604,16:19:42.260,22,false,0.201341,-0.606934,0.118469,0.759644,0.986343,0.037598,-0.243656,-23.369174,-39.744575,9.834273
1785194382.2918,16:19:42.291,23,false,0.203086,-0.606812,0.120789,0.758911,0.979995,0.018067,-0.245609,-23.320194,-39.717932,9.95743
1785194382.3229,16:19:42.322,24,false,0.20805,-0.606628,0.126526,0.756775,0.998062,0.012696,-0.252445,-23.365836,-39.678999,9.933687
1785194382.354,16:19:42.354,25,false,0.213757,-0.60614,0.13269,0.754517,0.992691,-0.064454,-0.25977,-23.451775,-39.76359,9.987087
1785194382.3854,16:19:42.385,26,false,0.222511,-0.60498,0.141968,0.751221,1.014664,-0.088869,-0.271489,-23.469304,-39.854676,10.094963
1785194382.4165,16:19:42.416,27,false,0.242089,-0.602722,0.160706,0.743164,0.971695,-0.043946,-0.264652,-23.604711,-40.011422,10.296728
1785194382.4477,16:19:42.447,28,false,0.258588,-0.599182,0.177185,0.736694,0.985367,-0.060548,-0.269535,-23.69667,-40.062771,10.283916
1785194382.4788,16:19:42.478,29,false,0.277511,-0.594421,0.196594,0.728699,0.978531,0.053223,-0.23975,-23.88411,-40.303385,10.421924
1785194382.5099,16:19:42.509,30,false,0.309097,-0.586182,0.224243,0.714539,0.94728,0.073243,-0.234867,-23.918221,-40.759199,10.531177
1785194382.5411,16:19:42.541,31,false,0.329727,-0.579468,0.24176,0.705017,0.976577,0.083009,-0.245609,-24.09846,-41.169431,10.629506
1785194382.5724,16:19:42.572,0,false,0.358812,-0.568848,0.266724,0.690308,0.999527,0.14844,-0.238773,-24.141044,-41.762948,10.972216
1785194382.6038,16:19:42.603,1,false,0.367263,-0.565796,0.274048,0.685486,0.985367,0.158694,-0.23389,-24.358816,-42.341975,11.041394
1785194382.6351,16:19:42.635,2,false,0.388274,-0.557678,0.292419,0.672852,0.983413,0.144045,-0.212894,-24.345456,-42.967776,11.313008
1785194382.6664,16:19:42.666,3,false,0.399714,-0.55304,0.302002,0.66571,0.982925,0.134279,-0.205081,-24.572695,-43.575858,11.497645
1785194382.6978,16:19:42.697,4,false,0.413336,-0.548523,0.311401,0.656738,0.973159,0.142092,-0.187503,-24.70244,-44.197902,11.693727
1785194382.7291,16:19:42.729,5,false,0.420122,-0.546509,0.314697,0.652527,0.97023,0.150881,-0.166995,-24.834164,-44.742787,11.930015
1785194382.7605,16:19:42.760,6,false,0.425059,-0.544861,0.316101,0.650024,0.980972,0.138674,-0.177249,-24.922808,-45.307953,12.142675
1785194382.7916,16:19:42.791,7,false,0.429016,-0.542664,0.31604,0.649292,0.986343,0.118166,-0.199222,-24.987634,-45.906325,12.319114
1785194382.8227,16:19:42.822,8,false,0.429325,-0.541626,0.314636,0.650635,0.991226,0.1084,-0.208499,-24.971209,-46.399999,12.47791
1785194382.8539,16:19:42.853,9,false,0.428149,-0.540588,0.312195,0.653442,1.012711,0.086915,-0.228031,-25.001287,-46.799443,12.63578
1785194382.885,16:19:42.885,10,false,0.426682,-0.540344,0.310913,0.655212,0.998062,0.043458,-0.244633,-24.908727,-47.099128,12.792817
1785194382.9162,16:19:42.916,11,false,0.425568,-0.5401,0.310547,0.656311,0.988296,0.021973,-0.245121,-25.079638,-47.443614,12.979012
1785194382.9475,16:19:42.947,12,false,0.424351,-0.540039,0.311157,0.65686,0.995132,0.029786,-0.225589,-25.173643,-47.738697,13.161541
1785194382.9788,16:19:42.978,13,false,0.424495,-0.539917,0.312073,0.656433,0.986831,0.048341,-0.214359,-25.228339,-47.929503,13.280956
1785194383.0102,16:19:43.010,14,false,0.425291,-0.539551,0.313416,0.655579,0.993668,0.041016,-0.221195,-25.142981,-48.220859,13.343567
1785194383.0415,16:19:43.041,15,false,0.427062,-0.538574,0.315613,0.654175,0.971206,0.056641,-0.210941,-25.290467,-48.378402,13.355056
1785194383.0729,16:19:43.072,16,false,0.428405,-0.53772,0.317017,0.65332,0.990249,0.048341,-0.224613,-25.438158,-48.684683,13.529889
1785194383.1042,16:19:43.104,17,false,0.430308,-0.536377,0.31897,0.652222,0.991714,0.053712,-0.220706,-25.451449,-48.945382,13.642376
1785194383.1355,16:19:43.135,18,false,0.430678,-0.536011,0.319336,0.6521,0.985367,0.055665,-0.211917,-25.418549,-49.075335,13.564169
1785194383.1667,16:19:43.166,19,false,0.431353,-0.535034,0.320435,0.651917,0.982925,0.063966,-0.226566,-25.314171,-49.147431,13.553598
1785194383.1978,16:19:43.197,20,false,0.431854,-0.534302,0.321228,0.651794,0.993668,0.05127,-0.21973,-25.309953,-49.346901,13.783345
1785194383.229,16:19:43.229,21,false,0.432458,-0.533447,0.322083,0.651672,0.993668,0.039063,-0.220218,-25.440741,-49.496517,13.825626
1785194383.2601,16:19:43.260,22,false,0.432715,-0.533203,0.322266,0.651611,0.982437,0.049805,-0.241215,-25.468728,-49.735849,13.818817
1785194383.2912,16:19:43.291,23,false,0.433264,-0.53302,0.322571,0.651245,0.996109,0.042969,-0.217777,-25.344377,-49.951247,13.737919
1785194383.3224,16:19:43.322,24,false,0.433367,-0.533569,0.32251,0.650757,1.002457,0.052247,-0.23389,-25.411908,-50.175013,13.695019
1785194383.3537,16:19:43.353,25,false,0.433909,-0.533875,0.322876,0.649963,1.000504,0.052247,-0.225589,-25.442778,-50.226864,13.761086
1785194383.3851,16:19:43.385,26,false,0.433946,-0.53418,0.323303,0.649475,0.983413,0.043946,-0.223148,-25.54533,-50.243622,13.760731
1785194383.4164,16:19:43.416,27,false,0.433961,-0.534058,0.323975,0.649231,0.978531,0.062501,-0.194827,-25.488089,-50.139074,13.820226
1785194383.4475,16:19:43.447,28,false,0.433697,-0.533752,0.323853,0.649719,0.980972,0.052735,-0.215335,-25.496387,-50.209472,13.78405
1785194383.4789,16:19:43.478,29,false,0.433316,-0.53302,0.32373,0.650635,0.977554,0.038575,-0.217288,-25.518809,-50.332647,13.706629
1785194383.5102,16:19:43.510,30,false,0.433203,-0.532776,0.323669,0.65094,0.996109,0.026368,-0.246098,-25.464219,-50.413596,13.532273
1785194383.5414,16:19:43.541,31,false,0.433508,-0.532043,0.323853,0.651245,0.988785,0.033692,-0.231937,-25.370227,-50.48645,13.554799
1785194383.5725,16:19:43.572,0,false,0.434275,-0.531494,0.324463,0.650879,1.001968,0.041505,-0.228519,-25.315542,-50.462296,13.694704
1785194383.6036,16:19:43.603,1,false,0.434682,-0.531311,0.324951,0.650513,0.993179,0.050782,-0.227543,-25.221464,-50.545234,13.671079
1785194383.6348,16:19:43.634,2,false,0.434802,-0.53125,0.325256,0.65033,0.992203,0.039551,-0.222171,-25.346148,-50.485293,13.679724
1785194383.6659,16:19:43.665,3,false,0.434694,-0.531189,0.325378,0.650391,0.992203,0.040528,-0.22266,-25.219102,-50.461255,13.62769
1785194383.6973,16:19:43.697,4,false,0.43493,-0.530884,0.325684,0.65033,0.995132,0.026856,-0.230961,-25.224391,-50.529343,13.565905
1785194383.7286,16:19:43.728,5,false,0.434937,-0.530579,0.32605,0.650391,0.995621,0.036133,-0.229496,-25.30392,-50.470992,13.644884
1785194383.76,16:19:43.760,6,false,0.435092,-0.530151,0.326416,0.650452,0.995621,0.024903,-0.223148,-25.285773,-50.508199,13.521564
1785194383.7913,16:19:43.791,7,false,0.435074,-0.53009,0.326538,0.650452,0.98732,0.050294,-0.229496,-25.239534,-50.4071,13.455438
1785194383.8224,16:19:43.822,8,false,0.435342,-0.529907,0.326843,0.650269,0.990249,0.030274,-0.235355,-25.242779,-50.480604,13.515555
1785194383.8536,16:19:43.853,9,false,0.43587,-0.529846,0.327209,0.64978,0.98439,0.044434,-0.218753,-25.245701,-50.471988,13.64443
1785194383.8849,16:19:43.884,10,false,0.436017,-0.529724,0.327454,0.649658,1.000992,0.044923,-0.227054,-25.278238,-50.553957,13.625833
1785194383.9161,16:19:43.916,11,false,0.436419,-0.529541,0.32782,0.649353,0.983413,0.055177,-0.23389,-25.337428,-50.657637,13.683864
1785194383.9472,16:19:43.947,12,false,0.436547,-0.529358,0.328186,0.649231,0.978531,0.039063,-0.227054,-25.330885,-50.706087,13.721139
1785194383.9783,16:19:43.978,13,false,0.437066,-0.529114,0.328613,0.648865,0.992691,0.041016,-0.219242,-25.310042,-50.839415,13.76964
1785194384.0095,16:19:44.009,14,false,0.437648,-0.528625,0.329346,0.648499,0.98439,0.021485,-0.235843,-25.381006,-50.974364,13.903014
1785194384.0406,16:19:44.040,15,false,0.437765,-0.528564,0.329529,0.648376,0.988296,0.029297,-0.215335,-25.42992,-50.961234,13.828651
1785194384.0718,16:19:44.071,16,false,0.43781,-0.528259,0.330078,0.648315,0.982437,0.033692,-0.217777,-25.384219,-50.979324,13.851447
1785194384.1031,16:19:44.103,17,false,0.43811,-0.527893,0.330505,0.648193,0.986343,0.042969,-0.229007,-25.492627,-51.100282,13.797194
1785194384.1344,16:19:44.134,18,false,0.438692,-0.527405,0.330872,0.64801,0.985855,0.043458,-0.228031,-25.530379,-51.119422,13.76332
1785194384.1658,16:19:44.165,19,false,0.439118,-0.527161,0.331055,0.647827,0.988296,0.038575,-0.229007,-25.549402,-51.046924,13.792649
1785194384.1971,16:19:44.197,20,false,0.439587,-0.526917,0.331299,0.647583,0.990738,0.03125,-0.23682,-25.641292,-51.011584,13.819046
1785194384.2285,16:19:44.228,21,false,0.439954,-0.526489,0.331848,0.6474,0.989273,0.051759,-0.228031,-25.649223,-51.054547,13.812894
1785194384.2596,16:19:44.259,22,false,0.439792,-0.526245,0.332092,0.647583,0.995132,0.037598,-0.230472,-25.6115,-50.988537,13.762497
1785194384.2907,16:19:44.290,23,false,0.43996,-0.526062,0.332397,0.647461,0.994156,0.036622,-0.238285,-25.577549,-50.959036,13.821816
1785194384.3219,16:19:44.321,24,false,0.440128,-0.525879,0.332703,0.647339,0.979507,0.032715,-0.231449,-25.576901,-50.9923,13.830342
1785194384.353,16:19:44.353,25,false,0.440135,-0.525757,0.332886,0.647339,0.988296,0.030274,-0.231937,-25.441734,-51.082053,13.882876
1785194384.3842,16:19:44.384,26,false,0.440279,-0.525635,0.333008,0.647278,0.985367,0.038575,-0.229496,-25.424759,-51.0432,13.90025
1785194384.4153,16:19:44.415,27,false,0.440698,-0.525391,0.333313,0.647034,0.988296,0.029786,-0.239261,-25.469298,-51.068047,13.93084
1785194384.4466,16:19:44.446,28,false,0.440681,-0.525635,0.333069,0.646973,0.988296,0.028809,-0.240238,-25.374798,-51.180133,13.943417
1785194384.478,16:19:44.478,29,false,0.440608,-0.525696,0.333069,0.646973,0.986343,0.028809,-0.220706,-25.244887,-51.266057,13.894921
1785194384.5093,16:19:44.509,30,false,0.440881,-0.525574,0.333374,0.646729,0.992203,0.036622,-0.221683,-25.21769,-51.253665,13.701736
1785194384.5407,16:19:44.540,31,false,0.440804,-0.525757,0.333069,0.64679,0.980972,0.041505,-0.233402,-25.253028,-51.287374,13.677408
1785194384.572,16:19:44.572,0,false,0.441002,-0.525818,0.332947,0.646667,0.997086,0.046876,-0.216312,-25.329693,-51.377527,13.640559
1785194384.6033,16:19:44.603,1,false,0.441466,-0.525879,0.332947,0.646301,0.985367,0.046387,-0.220706,-25.2342,-51.368942,13.697118
1785194384.6345,16:19:44.634,2,false,0.441937,-0.525818,0.33313,0.645935,0.977554,0.04004,-0.212894,-25.282841,-51.450938,13.628391
1785194384.6658,16:19:44.665,3,false,0.443161,-0.525452,0.333618,0.645142,0.979995,0.040528,-0.225589,-25.326617,-51.375197,13.641305
1785194384.697,16:19:44.697,4,false,0.443881,-0.52533,0.333679,0.644714,0.997086,0.041993,-0.220218,-25.306201,-51.471522,13.667882
1785194384.7281,16:19:44.728,5,false,0.444498,-0.525024,0.334045,0.644348,0.988785,0.038087,-0.228031,-25.377549,-51.438583,13.676847
1785194384.7592,16:19:44.759,6,false,0.445569,-0.524353,0.335083,0.643616,0.979507,0.041016,-0.227054,-25.292224,-51.408939,13.714823
1785194384.7904,16:19:44.790,7,false,0.446397,-0.52417,0.335205,0.643127,0.988296,0.057618,-0.229007,-25.290201,-51.337397,13.749002
1785194384.8215,16:19:44.821,8,false,0.446807,-0.524231,0.335266,0.642761,0.994156,0.056153,-0.229496,-25.243519,-51.512271,13.69004
1785194384.8529,16:19:44.852,9,false,0.446762,-0.524292,0.335815,0.642456,0.996109,0.048829,-0.223148,-25.141689,-51.505165,13.696789
1785194384.8842,16:19:44.884,10,false,0.446544,-0.524353,0.336243,0.642334,0.988785,0.039551,-0.227543,-25.139766,-51.483817,13.747725
1785194384.9155,16:19:44.915,11,false,0.446163,-0.524353,0.337097,0.642151,0.98439,0.041016,-0.214359,-25.138034,-51.614141,13.718799
1785194384.9469,16:19:44.946,12,false,0.446016,-0.524353,0.337524,0.642029,0.988785,0.038087,-0.224125,-25.061707,-51.581894,13.812395
1785194384.9782,16:19:44.978,13,false,0.446007,-0.524353,0.337769,0.641907,0.991226,0.026856,-0.218265,-25.202366,-51.493057,13.866724
1785194385.0096,16:19:45.009,14,false,0.446715,-0.525085,0.336853,0.641296,0.987808,0.027344,-0.226078,-25.25419,-51.562642,13.855805
1785194385.0407,16:19:45.040,15,false,0.448563,-0.52594,0.335266,0.640137,0.971695,0.017578,-0.224125,-25.315786,-51.565453,13.860932
1785194385.0718,16:19:45.071,16,false,0.45188,-0.52771,0.33197,0.638062,0.998062,0.027832,-0.225101,-25.191776,-51.388537,13.820685
1785194385.103,16:19:45.103,17,false,0.452805,-0.528076,0.331299,0.637451,0.993668,0.066896,-0.227543,-25.229705,-51.274174,13.829323
1785194385.1341,16:19:45.134,18,false,0.455198,-0.52832,0.330444,0.635986,0.989273,0.064454,-0.223636,-25.293749,-51.126386,13.867006
1785194385.1653,16:19:45.165,19,false,0.45635,-0.528137,0.330322,0.635376,0.983413,0.07422,-0.229007,-25.216804,-51.00833,13.960736
1785194385.1964,16:19:45.196,20,false,0.457267,-0.527893,0.330383,0.634888,0.982437,0.082521,-0.232425,-25.371862,-50.90208,14.000231
1785194385.2277,16:19:45.227,21,false,0.457377,-0.527527,0.330933,0.634827,0.980972,0.064454,-0.226078,-25.42169,-50.791502,13.990915
1785194385.2591,16:19:45.259,22,false,0.457641,-0.52655,0.331421,0.635193,0.934585,0.041993,-0.219242,-25.361859,-50.691981,14.012439
1785194385.2904,16:19:45.290,23,false,0.463662,-0.521606,0.329224,0.636047,0.909194,0.026856,-0.176272,-25.30801,-50.602412,13.95704
1785194385.3218,16:19:45.321,24,false,0.471214,-0.516113,0.324768,0.637268,0.905776,0.059083,-0.17969,-25.304409,-50.402169,13.817459
1785194385.3529,16:19:45.352,25,false,0.480187,-0.509644,0.318054,0.63916,1.017105,0.124025,-0.252445,-25.271259,-50.401397,13.63202
1785194385.3842,16:19:45.384,26,false,0.491481,-0.50238,0.310425,0.640076,1.084489,0.083986,-0.369146,-25.181609,-50.310979,13.375403
1785194385.4154,16:19:45.415,27,false,0.496222,-0.499329,0.309692,0.63916,1.037125,0.089845,-0.372564,-25.041109,-50.274464,13.189308
1785194385.4465,16:19:45.446,28,false,0.499353,-0.496948,0.3125,0.637207,1.03859,0.129885,-0.357427,-24.899705,-50.196739,12.976962
1785194385.4777,16:19:45.477,29,false,0.49912,-0.496887,0.314209,0.636597,1.028824,0.165042,-0.319341,-24.772442,-49.932387,12.845665
1785194385.5088,16:19:45.508,30,false,0.495711,-0.499756,0.319092,0.634583,1.012711,0.124514,-0.327153,-24.672858,-49.933731,12.757406
1785194385.5401,16:19:45.540,31,false,0.490734,-0.502991,0.32373,0.633545,1.017594,0.108888,-0.329595,-24.717818,-49.964849,12.722834
1785194385.5713,16:19:45.571,0,false,0.481465,-0.508179,0.331482,0.632507,0.91017,0.065919,-0.285649,-24.533974,-50.127439,12.587043
1785194385.6026,16:19:45.602,1,false,0.476506,-0.512817,0.336121,0.630066,0.940932,0.065431,-0.253422,-24.458237,-50.258817,12.65923
1785194385.634,16:19:45.634,2,false,0.475113,-0.51416,0.337524,0.629272,0.961929,0.064454,-0.251469,-24.44989,-50.362103,12.634476
1785194385.6653,16:19:45.665,3,false,0.471704,-0.517761,0.340088,0.627502,0.941909,0.081544,-0.225101,-24.576961,-50.395245,12.77669
1785194385.6967,16:19:45.696,4,false,0.470079,-0.519104,0.340515,0.62738,0.937026,0.098634,-0.219242,-24.646465,-50.544703,12.904682
1785194385.728,16:19:45.728,5,false,0.467481,-0.519348,0.340454,0.62915,0.959487,0.071778,-0.228031,-24.738925,-50.514724,12.930152
1785194385.7591,16:19:45.759,6,false,0.465844,-0.518677,0.340332,0.630981,0.985855,0.081544,-0.23389,-24.792232,-50.682142,13.147474
1785194385.7903,16:19:45.790,7,false,0.464198,-0.518127,0.339905,0.632874,0.979019,0.067872,-0.236332,-24.900023,-50.817864,13.223434
1785194385.8214,16:19:45.821,8,false,0.462389,-0.517395,0.339844,0.634827,0.993179,0.036133,-0.246098,-24.982081,-50.730661,13.231983
1785194385.8526,16:19:45.852,9,false,0.461491,-0.517517,0.339966,0.635315,1.006363,0.012696,-0.249027,-25.04098,-50.81667,13.299492
1785194385.8837,16:19:45.883,10,false,0.461016,-0.517822,0.340942,0.634888,1.011246,0.018067,-0.245609,-25.198666,-50.894079,13.255573
1785194385.9148,16:19:45.914,11,false,0.46048,-0.518799,0.343689,0.632996,1.00441,0.030274,-0.227054,-25.191045,-51.008608,13.320723
1785194385.9462,16:19:45.946,12,false,0.459988,-0.519897,0.345825,0.631287,1.007828,0.03418,-0.220218,-25.31877,-51.051868,13.394312
1785194385.9775,16:19:45.977,13,false,0.459443,-0.521484,0.348267,0.629028,0.955093,0.046876,-0.19678,-25.433723,-51.165572,13.595126
1785194386.0089,16:19:46.008,14,false,0.459464,-0.521729,0.348755,0.62854,0.956558,0.032227,-0.181155,-25.522227,-51.252952,13.70109
1785194386.0402,16:19:46.040,15,false,0.459792,-0.521545,0.348816,0.628418,0.980972,0.053223,-0.19971,-25.571973,-51.197009,13.841319
1785194386.0715,16:19:46.071,16,false,0.460268,-0.520813,0.347961,0.62915,0.981949,0.047852,-0.215824,-25.512067,-51.296199,13.892756
1785194386.1029,16:19:46.102,17,false,0.461139,-0.519348,0.346008,0.630798,0.968765,0.03711,-0.218265,-25.517967,-51.220977,13.924095
1785194386.1342,16:19:46.134,18,false,0.46218,-0.517883,0.345032,0.631775,0.982437,0.039551,-0.245121,-25.598046,-51.257955,13.952301
1785194386.1656,16:19:46.165,19,false,0.46299,-0.516174,0.344604,0.632813,0.976577,0.045411,-0.252934,-25.565441,-51.276281,13.887962
1785194386.1967,16:19:46.196,20,false,0.464711,-0.513123,0.345276,0.633667,0.975113,0.058106,-0.254398,-25.595912,-51.27782,13.889873
1785194386.2278,16:19:46.227,21,false,0.465949,-0.511353,0.346008,0.633789,0.991714,0.073243,-0.25098,-25.548566,-51.309114,13.891593
1785194386.259,16:19:46.259,22,false,0.466656,-0.509949,0.34668,0.634033,1.012222,0.058595,-0.267582,-25.505955,-51.30737,13.923049
1785194386.2901,16:19:46.290,23,false,0.467018,-0.508728,0.348206,0.633911,1.008804,0.048829,-0.252445,-25.467604,-51.410477,13.921451
1785194386.3213,16:19:46.321,24,false,0.466637,-0.508301,0.34967,0.633728,0.992691,0.059083,-0.255375,-25.373274,-51.48832,13.934967
1785194386.3526,16:19:46.352,25,false,0.465019,-0.508301,0.351929,0.633667,0.983413,0.033692,-0.242679,-25.198654,-51.573333,13.962086
1785194386.3839,16:19:46.383,26,false,0.463468,-0.508667,0.353333,0.633728,0.980484,0.02295,-0.232914,-25.131218,-51.679752,13.971538
1785194386.4153,16:19:46.415,27,false,0.4618,-0.509216,0.354614,0.633789,0.974136,-0.002441,-0.235355,-25.175203,-51.865252,13.994999
1785194386.4466,16:19:46.446,28,false,0.459544,-0.510376,0.356201,0.633606,0.974624,0.008301,-0.2168,-25.184882,-52.047156,14.031068
1785194386.478,16:19:46.478,29,false,0.458549,-0.510986,0.356934,0.633423,0.974624,0.006348,-0.208499,-25.29827,-52.121146,14.048576
1785194386.5091,16:19:46.509,30,false,0.457953,-0.511292,0.35791,0.633057,0.983902,0.008789,-0.217288,-25.265735,-52.232599,14.154057
1785194386.5402,16:19:46.540,31,false,0.457942,-0.511292,0.358032,0.632996,0.985855,0.021973,-0.213382,-25.236453,-52.332907,14.248989
1785194386.5714,16:19:46.571,0,false,0.457514,-0.511353,0.358276,0.633118,0.993668,0.012207,-0.228031,-25.284868,-52.243738,14.229751
1785194386.6025,16:19:46.602,1,false,0.457226,-0.511169,0.358582,0.633301,0.995621,0.019043,-0.225101,-25.35835,-52.387793,14.287206
1785194386.6337,16:19:46.633,2,false,0.45718,-0.51062,0.359314,0.633362,0.984878,0.020508,-0.216312,-25.349714,-52.517443,14.264147
1785194386.665,16:19:46.665,3,false,0.456563,-0.510437,0.359497,0.63385,0.997086,0.012696,-0.217777,-25.476526,-52.544404,14.333116
1785194386.6961,16:19:46.696,4,false,0.456026,-0.51001,0.359924,0.634338,0.983902,0.006836,-0.218753,-25.500934,-52.613532,14.275558
1785194386.7275,16:19:46.727,5,false,0.454816,-0.509583,0.360229,0.635376,0.987808,0.008301,-0.222171,-25.373363,-52.675746,14.104125
1785194386.7588,16:19:46.758,6,false,0.454635,-0.509094,0.360718,0.63562,0.973648,-0.000977,-0.221195,-25.363226,-52.806508,14.174143
1785194386.7902,16:19:46.790,7,false,0.45431,-0.50885,0.360718,0.636047,0.999527,-0.000488,-0.232914,-25.324195,-52.894286,14.237159
1785194386.8215,16:19:46.821,8,false,0.454231,-0.508606,0.36084,0.63623,0.985855,-0.012207,-0.225589,-25.304021,-52.883564,14.20415
1785194386.8529,16:19:46.852,9,false,0.454051,-0.508667,0.360657,0.636414,0.981949,-0.001465,-0.227054,-25.300818,-52.918775,14.159489
1785194386.8842,16:19:46.884,10,false,0.45435,-0.508911,0.360474,0.636108,0.993668,-0.008301,-0.221195,-25.193259,-52.920557,14.149201
1785194386.9153,16:19:46.915,11,false,0.45455,-0.508972,0.360352,0.635986,0.992691,0.013672,-0.226566,-25.305809,-52.981977,14.154896
1785194386.9465,16:19:46.946,12,false,0.455133,-0.509094,0.360413,0.635437,0.979507,0.01709,-0.226078,-25.332335,-52.962485,14.23479
1785194386.9776,16:19:46.977,13,false,0.455076,-0.509155,0.360291,0.635498,0.978042,0.012696,-0.225589,-25.296393,-52.885127,14.216972
1785194387.0088,16:19:47.008,14,false,0.455374,-0.508911,0.360474,0.635376,0.982437,-0.004395,-0.230961,-25.219184,-52.860367,14.305613
1785194387.0399,16:19:47.039,15,false,0.455547,-0.508789,0.360535,0.635315,0.983902,0.015625,-0.221683,-25.329141,-52.882944,14.295667
1785194387.071,16:19:47.071,16,false,0.455516,-0.50885,0.360596,0.635254,1.00441,0.010742,-0.221683,-25.368288,-52.992986,14.301669
1785194387.1024,16:19:47.102,17,false,0.455447,-0.508728,0.360962,0.635193,0.974624,0.008789,-0.231937,-25.283889,-53.017255,14.351932
1785194387.1337,16:19:47.133,18,false,0.455674,-0.508667,0.361084,0.63501,0.992203,0.0,-0.220706,-25.357469,-53.039097,14.397169
1785194387.1651,16:19:47.165,19,false,0.455719,-0.509277,0.360596,0.634766,0.988785,0.003418,-0.216312,-25.333967,-53.013894,14.303298
1785194387.1964,16:19:47.196,20,false,0.455673,-0.50946,0.360718,0.634583,0.993179,-0.011719,-0.223148,-25.312816,-53.021118,14.39826
1785194387.2277,16:19:47.227,21,false,0.455828,-0.509583,0.360779,0.634338,0.980484,-0.013672,-0.217288,-25.368549,-53.102389,14.30428
1785194387.2591,16:19:47.259,22,false,0.456407,-0.510071,0.360107,0.633911,0.99855,0.01416,-0.216312,-25.328985,-53.08581,14.354282
1785194387.2904,16:19:47.290,23,false,0.456637,-0.510437,0.359619,0.633728,0.992203,0.018555,-0.21973,-25.203655,-52.981166,14.414238
1785194387.3216,16:19:47.321,24,false,0.45697,-0.510742,0.359192,0.633484,0.990738,0.020996,-0.210452,-25.240397,-52.991663,14.542968
1785194387.3527,16:19:47.352,25,false,0.457244,-0.511047,0.358948,0.633179,0.98732,0.024903,-0.21387,-25.153833,-53.045972,14.554147
1785194387.3838,16:19:47.383,26,false,0.457299,-0.511169,0.358704,0.633179,0.988785,0.013184,-0.215824,-25.225464,-53.124758,14.519348
1785194387.415,16:19:47.415,27,false,0.457543,-0.51123,0.358521,0.633057,0.996597,0.006348,-0.218753,-25.334794,-53.090988,14.697382
1785194387.4461,16:19:47.446,28,false,0.457949,-0.511169,0.358521,0.632813,0.994644,0.018555,-0.218753,-25.358422,-53.060595,14.573489
1785194387.4775,16:19:47.477,29,false,0.458539,-0.511169,0.358521,0.632385,0.997574,0.026856,-0.226566,-25.230148,-53.108011,14.611524
1785194387.5088,16:19:47.508,30,false,0.458687,-0.51123,0.358459,0.632263,0.990738,0.036622,-0.22266,-25.114702,-52.926377,14.645756
1785194387.5401,16:19:47.540,31,false,0.458694,-0.511353,0.358276,0.632263,0.989761,0.025879,-0.21973,-25.085569,-52.718046,14.646657
1785194387.5715,16:19:47.571,0,false,0.458637,-0.511414,0.358154,0.632324,0.979019,0.030762,-0.215824,-25.149073,-52.739901,14.557745
1785194387.6028,16:19:47.602,1,false,0.458789,-0.511353,0.358154,0.632263,1.005875,0.013672,-0.232425,-25.266042,-52.819386,14.447816
1785194387.634,16:19:47.634,2,false,0.458863,-0.51123,0.35791,0.632446,0.997574,0.013184,-0.231449,-25.191868,-52.935784,14.438603
1785194387.6651,16:19:47.665,3,false,0.459013,-0.510925,0.358154,0.632446,1.006363,0.009766,-0.23975,-25.229788,-52.846143,14.490127
1785194387.6962,16:19:47.696,4,false,0.45879,-0.510437,0.358704,0.63269,0.985855,0.008789,-0.227054,-25.159239,-52.780419,14.551452
1785194387.7274,16:19:47.727,5,false,0.458987,-0.510132,0.358887,0.63269,0.989761,0.008789,-0.228519,-25.15556,-52.781083,14.487014
1785194387.7585,16:19:47.758,6,false,0.459521,-0.510254,0.358459,0.632446,0.982925,-0.000488,-0.220706,-25.077481,-52.781681,14.384159
1785194387.7897,16:19:47.789,7,false,0.460454,-0.51062,0.358032,0.631714,0.993179,0.03711,-0.224125,-25.05207,-52.812127,14.441127
1785194387.8208,16:19:47.820,8,false,0.46073,-0.511047,0.357605,0.631409,0.971695,0.026368,-0.218753,-24.90957,-52.764758,14.522306
1785194387.8521,16:19:47.852,9,false,0.461172,-0.511292,0.357117,0.631165,0.986343,0.017578,-0.227543,-24.900951,-52.61745,14.670136
1785194387.8835,16:19:47.883,10,false,0.461055,-0.511414,0.356445,0.631531,0.990249,0.009277,-0.233402,-24.908147,-52.679273,14.608784
1785194387.9148,16:19:47.914,11,false,0.46108,-0.51123,0.356567,0.631592,0.98732,0.019532,-0.231937,-24.780039,-52.690052,14.613382
1785194387.9462,16:19:47.946,12,false,0.461243,-0.510742,0.357056,0.631592,0.994644,0.008301,-0.226566,-24.948865,-52.639937,14.482936
1785194387.9775,16:19:47.977,13,false,0.461237,-0.51062,0.357239,0.631592,0.986831,0.019532,-0.234379,-24.95127,-52.594834,14.410395
1785194388.0086,16:19:48.008,14,false,0.461718,-0.510437,0.357849,0.631042,0.987808,0.003906,-0.248539,-25.01325,-52.614057,14.360063
1785194388.0398,16:19:48.039,15,false,0.462015,-0.510742,0.358643,0.630127,1.002945,0.027344,-0.252934,-25.143801,-52.436957,14.314764
1785194388.0709,16:19:48.070,16,false,0.462204,-0.511902,0.360168,0.628174,0.987808,0.01709,-0.23682,-25.066897,-52.352337,14.273995
1785194388.1021,16:19:48.102,17,false,0.462173,-0.512695,0.361206,0.626953,0.990249,0.039063,-0.213382,-25.072453,-52.32104,14.312072
1785194388.1332,16:19:48.133,18,false,0.46202,-0.513489,0.361755,0.626099,0.974624,0.038087,-0.198245,-25.062499,-52.412503,14.361295
1785194388.1643,16:19:48.164,19,false,0.461718,-0.514221,0.361206,0.626038,0.985367,0.024903,-0.19678,-25.083448,-52.464913,14.465411
1785194388.1955,16:19:48.195,20,false,0.461534,-0.514465,0.360352,0.626465,0.999039,0.021973,-0.207523,-25.102303,-52.512082,14.454439
1785194388.2266,16:19:48.226,21,false,0.461593,-0.514648,0.359802,0.626587,1.004898,0.01416,-0.227543,-25.104318,-52.569487,14.474471
1785194388.258,16:19:48.258,22,false,0.461269,-0.515808,0.359619,0.625977,1.000015,0.02295,-0.229007,-25.106132,-52.546383,14.492501
1785194388.2893,16:19:48.289,23,false,0.461202,-0.516785,0.360107,0.624939,0.988296,0.024903,-0.220706,-25.227394,-52.45082,14.538635
1785194388.3206,16:19:48.320,24,false,0.461083,-0.518066,0.360535,0.623718,0.976577,0.043458,-0.192874,-25.29167,-52.334906,14.505386
1785194388.352,16:19:48.352,25,false,0.460939,-0.518311,0.360474,0.623657,0.985855,0.041016,-0.19678,-25.424286,-52.26049,14.654909
1785194388.3833,16:19:48.383,26,false,0.460544,-0.518433,0.360168,0.624023,0.992203,0.025879,-0.206058,-25.394103,-52.313147,14.654894
1785194388.4147,16:19:48.414,27,false,0.460028,-0.518127,0.35968,0.624939,1.000504,0.02295,-0.207034,-25.426754,-52.300723,14.565158
1785194388.4458,16:19:48.445,28,false,0.460031,-0.517334,0.359863,0.625488,0.994156,0.008789,-0.218265,-25.411277,-52.334403,14.61898
1785194388.4769,16:19:48.476,29,false,0.460052,-0.517029,0.360168,0.625549,0.986343,0.02295,-0.213382,-25.32258,-52.245084,14.66742
1785194388.5081,16:19:48.508,30,false,0.460247,-0.516907,0.360413,0.625366,0.978042,0.035157,-0.214847,-25.272659,-52.149743,14.72597
1785194388.5392,16:19:48.539,31,false,0.46014,-0.516968,0.360779,0.625183,0.986831,0.041016,-0.20264,-25.332408,-52.213475,14.748757
1785194388.5704,16:19:48.570,0,false,0.459789,-0.516846,0.361084,0.625366,0.990249,0.023438,-0.214847,-25.431043,-52.196064,14.619727
1785194388.6017,16:19:48.601,1,false,0.459334,-0.516785,0.361328,0.62561,0.992203,0.008301,-0.218753,-25.534769,-52.24021,14.742862
1785194388.633,16:19:48.633,2,false,0.459295,-0.516785,0.361694,0.625427,0.997574,0.019532,-0.204105,-25.46363,-52.250034,14.734052
1785194388.6644,16:19:48.664,3,false,0.459228,-0.516724,0.362183,0.625244,0.993179,0.014649,-0.202152,-25.519235,-52.243921,14.770985
1785194388.6957,16:19:48.695,4,false,0.459235,-0.516846,0.362,0.625244,0.990249,0.033204,-0.208499,-25.524419,-52.223466,14.78927
1785194388.7271,16:19:48.727,5,false,0.459214,-0.516907,0.361938,0.625244,0.986343,0.028809,-0.206058,-25.648714,-52.190102,14.716005
1785194388.7582,16:19:48.758,6,false,0.459318,-0.516846,0.362,0.625183,0.989761,0.025879,-0.194827,-25.596088,-52.249798,14.844465
1785194388.7894,16:19:48.789,7,false,0.45938,-0.516907,0.361938,0.625122,0.986831,0.026856,-0.209476,-25.743125,-52.228755,14.825495
1785194388.8205,16:19:48.820,8,false,0.459277,-0.516968,0.361877,0.625183,0.995132,0.025391,-0.211917,-25.755827,-52.284586,14.808422
1785194388.8516,16:19:48.851,9,false,0.459017,-0.51709,0.362244,0.625061,0.996597,0.028809,-0.212894,-25.856982,-52.319879,14.733241
1785194388.8828,16:19:48.882,10,false,0.459052,-0.51709,0.362305,0.625,1.000015,0.026368,-0.199222,-25.948021,-52.306782,14.740347
1785194388.9139,16:19:48.913,11,false,0.458901,-0.517212,0.362427,0.624939,0.979995,0.023438,-0.194827,-25.835557,-52.280041,14.896281
1785194388.9451,16:19:48.945,12,false,0.459115,-0.517029,0.362732,0.624756,0.988296,-0.000488,-0.207523,-25.764246,-52.285881,15.036622
1785194388.9762,16:19:48.976,13,false,0.460283,-0.515991,0.363464,0.624329,0.965347,-0.036133,-0.201663,-25.864559,-52.350953,15.01339
1785194389.0075,16:19:49.007,14,false,0.464032,-0.514099,0.363892,0.622864,0.977554,-0.08838,-0.180667,-25.924933,-52.409517,15.097158
1785194389.0389,16:19:49.038,15,false,0.471256,-0.510925,0.36377,0.620117,0.97023,-0.124514,-0.192386,-25.829732,-52.357549,14.888426
1785194389.0702,16:19:49.070,16,false,0.48945,-0.5047,0.361145,0.61261,0.973159,0.071778,-0.223148,-25.833773,-52.4005,14.894968
1785194389.1016,16:19:49.101,17,false,0.503409,-0.500061,0.358704,0.606506,0.973159,0.146975,-0.241703,-25.807503,-52.364387,14.900855
1785194389.1329,16:19:49.132,18,false,0.516389,-0.496338,0.355164,0.600708,0.950698,0.232914,-0.295903,-25.813767,-52.212254,14.801477
1785194389.164,16:19:49.164,19,false,0.532125,-0.493958,0.348938,0.592529,1.011246,0.255863,-0.336919,-25.729682,-52.13515,14.72699
1785194389.1952,16:19:49.195,20,false,0.537988,-0.49469,0.347473,0.587463,1.028336,0.274418,-0.357916,-25.818497,-51.946126,14.540322
1785194389.2263,16:19:49.226,21,false,0.538549,-0.499573,0.350281,0.581116,1.063005,0.287114,-0.343755,-25.748893,-51.701235,14.551766
1785194389.2575,16:19:49.257,22,false,0.533125,-0.503662,0.355713,0.579285,1.027848,0.257328,-0.292973,-25.746064,-51.450925,14.606927
1785194389.2886,16:19:49.288,23,false,0.524109,-0.507629,0.36261,0.579773,0.943374,0.191897,-0.207034,-25.743519,-51.165831,14.656573
1785194389.3197,16:19:49.319,24,false,0.508263,-0.510925,0.37323,0.584229,0.893568,0.097658,-0.135256,-25.830951,-50.954108,14.716207
1785194389.3511,16:19:49.351,25,false,0.4991,-0.511169,0.378418,0.588562,0.911635,0.061036,-0.132815,-25.984409,-51.167311,14.949324
1785194389.3824,16:19:49.382,26,false,0.489036,-0.507385,0.383423,0.596985,0.907729,-0.035157,-0.123537,-26.032798,-51.419009,15.114268
1785194389.4138,16:19:49.413,27,false,0.486912,-0.505188,0.384644,0.599792,0.936538,-0.043458,-0.168948,-26.016532,-51.406276,15.23281
1785194389.4451,16:19:49.445,28,false,0.483745,-0.497009,0.387695,0.607178,0.973648,-0.069337,-0.214847,-26.061709,-51.813523,15.369406
1785194389.4764,16:19:49.476,29,false,0.484408,-0.491394,0.389709,0.609924,0.994644,-0.053223,-0.245609,-26.087414,-52.120231,15.402618
1785194389.5076,16:19:49.507,30,false,0.486138,-0.485596,0.393372,0.61084,1.083024,-0.049805,-0.292973,-25.990918,-52.36636,15.357741
1785194389.5387,16:19:49.538,31,false,0.486089,-0.483337,0.397705,0.609863,1.087419,-0.062501,-0.276371,-25.963887,-52.498153,15.407074
1785194389.5699,16:19:49.569,0,false,0.484734,-0.481812,0.40332,0.608459,1.087907,-0.058595,-0.25098,-25.954513,-52.811167,15.286981
1785194389.601,16:19:49.601,1,false,0.48025,-0.479553,0.413635,0.606873,0.983902,-0.065431,-0.188968,-25.871307,-53.092879,15.358344
1785194389.6321,16:19:49.632,2,false,0.476323,-0.477966,0.421021,0.60614,0.958999,-0.072755,-0.166506,-25.916052,-53.34642,15.347802
1785194389.6633,16:19:49.663,3,false,0.471626,-0.47699,0.427368,0.60614,0.94728,-0.08838,-0.133791,-25.821739,-53.709192,15.502806
1785194389.6944,16:19:49.694,4,false,0.466447,-0.476318,0.434265,0.605774,0.929213,-0.076173,-0.120607,-25.826579,-54.095501,15.836709
1785194389.7256,16:19:49.725,5,false,0.46424,-0.476379,0.436218,0.606018,0.912612,-0.062501,-0.110842,-25.756167,-54.577765,16.182084
1785194389.7569,16:19:49.756,6,false,0.462894,-0.476929,0.434753,0.607666,0.946304,-0.077638,-0.122072,-25.63298,-54.96694,16.463013
1785194389.7882,16:19:49.788,7,false,0.462847,-0.476929,0.43335,0.608704,0.98146,-0.077638,-0.143069,-25.581928,-55.107845,16.670988
1785194389.8196,16:19:49.819,8,false,0.462605,-0.475952,0.428284,0.61322,0.991226,-0.113771,-0.180179,-25.610749,-55.27952,16.753489
1785194389.8509,16:19:49.850,9,false,0.462608,-0.475037,0.424194,0.61676,1.003922,-0.117678,-0.197269,-25.532012,-55.538705,16.827739
1785194389.8823,16:19:49.882,10,false,0.463257,-0.474121,0.417236,0.621704,1.013199,-0.109865,-0.224125,-25.416287,-55.742063,16.670257
1785194389.9136,16:19:49.913,11,false,0.464037,-0.473755,0.412659,0.624451,0.995132,-0.1084,-0.25098,-25.237365,-55.880224,16.678062
1785194389.9449,16:19:49.944,12,false,0.464822,-0.473572,0.408447,0.62677,1.005875,-0.097169,-0.253422,-25.240828,-55.989615,16.520594
1785194389.9761,16:19:49.976,13,false,0.466638,-0.473511,0.404175,0.628235,1.001968,-0.073243,-0.265141,-25.124314,-56.073114,16.438688
1785194390.0072,16:19:50.007,14,false,0.467952,-0.473877,0.402222,0.628235,1.027848,-0.075685,-0.284672,-25.124128,-56.073493,16.290203
1785194390.0386,16:19:50.038,15,false,0.469572,-0.475037,0.400391,0.627319,1.011246,-0.059571,-0.279789,-24.92956,-56.073834,16.007028
1785194390.0697,16:19:50.069,16,false,0.470552,-0.476563,0.399719,0.625854,1.030777,-0.07129,-0.259281,-24.784357,-55.984418,15.886756
1785194390.1008,16:19:50.100,17,false,0.47136,-0.478821,0.399597,0.623596,1.01564,-0.059571,-0.243168,-24.758352,-55.933852,15.808418
1785194390.1322,16:19:50.132,18,false,0.472047,-0.482422,0.399963,0.620056,0.935073,-0.0542,-0.194827,-24.809716,-55.933203,15.708007
1785194390.1635,16:19:50.163,19,false,0.473182,-0.485229,0.399475,0.61731,0.946792,-0.027344,-0.191409,-24.915759,-55.902712,15.812036
1785194390.1949,16:19:50.194,20,false,0.474637,-0.488586,0.397888,0.614563,0.958022,0.012207,-0.181643,-24.876613,-55.860316,15.890709
1785194390.2262,16:19:50.226,21,false,0.477648,-0.493286,0.394958,0.610352,0.982437,0.052735,-0.186526,-24.841382,-55.867021,16.02133
1785194390.2576,16:19:50.257,22,false,0.478965,-0.495728,0.393127,0.608521,0.997086,0.067384,-0.187015,-24.944258,-55.888009,16.123935
1785194390.2889,16:19:50.288,23,false,0.47961,-0.497742,0.391113,0.607666,0.987808,0.069825,-0.201663,-25.111616,-55.787268,16.081695
1785194390.32,16:19:50.320,24,false,0.479509,-0.498047,0.390564,0.607849,1.000504,0.043458,-0.20264,-25.262238,-55.562017,16.073586
1785194390.3514,16:19:50.351,25,false,0.478187,-0.497925,0.389771,0.609497,1.00148,0.016602,-0.21387,-25.263214,-55.404152,16.006473
1785194390.3825,16:19:50.382,26,false,0.47717,-0.497009,0.389893,0.610962,0.984878,-0.009277,-0.206058,-25.293999,-55.471427,16.035795
1785194390.4137,16:19:50.413,27,false,0.476233,-0.49646,0.389343,0.612488,0.982437,-0.002441,-0.217288,-25.351614,-55.352529,15.957507
1785194390.4448,16:19:50.444,28,false,0.476177,-0.496704,0.388428,0.612915,0.979019,0.005371,-0.214847,-25.567959,-55.215613,15.842187
1785194390.4759,16:19:50.475,29,false,0.476577,-0.497253,0.387329,0.612854,0.986343,0.004883,-0.20557,-25.448639,-55.182111,15.962706
1785194390.5073,16:19:50.507,30,false,0.477713,-0.497986,0.386047,0.612183,0.985367,0.022461,-0.226078,-25.49079,-55.15196,15.936589
1785194390.5386,16:19:50.538,31,false,0.478215,-0.498596,0.385315,0.611755,1.002457,0.029786,-0.220706,-25.46891,-54.900516,15.853268
1785194390.57,16:19:50.570,0,false,0.478653,-0.499207,0.384949,0.611145,1.005386,0.03125,-0.20557,-25.49408,-54.778894,15.808187
1785194390.6013,16:19:50.601,1,false,0.478949,-0.500183,0.384766,0.610229,0.995132,0.038575,-0.205081,-25.591502,-54.77411,15.812475
1785194390.6326,16:19:50.632,2,false,0.478568,-0.501099,0.384338,0.610046,0.990249,0.028809,-0.20264,-25.619366,-54.754851,15.696704
1785194390.6638,16:19:50.663,3,false,0.477748,-0.502563,0.383057,0.610291,0.982437,0.024903,-0.198734,-25.62949,-54.752472,15.712141
1785194390.6951,16:19:50.695,4,false,0.477578,-0.50293,0.38269,0.610352,0.994156,0.025879,-0.20557,-25.698417,-54.660608,15.740988
1785194390.7263,16:19:50.726,5,false,0.477463,-0.503845,0.381531,0.610413,0.989273,0.013672,-0.197757,-25.790359,-54.682607,15.76695
1785194390.7574,16:19:50.757,6,false,0.4769,-0.504395,0.380432,0.611084,0.992691,0.015137,-0.198734,-25.783384,-54.478098,15.670685
1785194390.7885,16:19:50.788,7,false,0.477209,-0.504028,0.380432,0.611145,0.993179,0.013672,-0.196292,-25.762153,-54.338902,15.913032
1785194390.8197,16:19:50.819,8,false,0.477759,-0.503479,0.380371,0.611206,1.000992,0.009277,-0.212406,-25.743044,-54.213626,15.996559
1785194390.8508,16:19:50.850,9,false,0.478157,-0.503296,0.38031,0.611084,0.988296,0.017578,-0.204593,-25.740801,-54.235462,15.937149
1785194390.8822,16:19:50.882,10,false,0.478888,-0.502869,0.380249,0.610901,0.99855,0.016602,-0.2168,-25.604197,-54.195298,16.122941
1785194390.9135,16:19:50.913,11,false,0.479201,-0.502747,0.38031,0.610718,0.992691,0.033692,-0.203616,-25.600884,-54.129244,16.185477
1785194390.9448,16:19:50.944,12,false,0.479201,-0.502747,0.38031,0.610718,0.982437,0.020508,-0.216312,-25.642764,-54.039887,16.152036
1785194390.9762,16:19:50.976,13,false,0.478904,-0.502808,0.38031,0.610901,0.984878,0.018067,-0.209476,-25.650548,-53.929558,16.017263
1785194391.0075,16:19:51.007,14,false,0.478777,-0.502808,0.380371,0.610962,0.988785,0.003906,-0.206546,-25.493062,-53.919985,15.910921
1785194391.0387,16:19:51.038,15,false,0.478558,-0.502869,0.380371,0.611084,0.98146,0.01416,-0.209964,-25.590586,-53.926323,15.860075
1785194391.0698,16:19:51.069,16,false,0.478509,-0.502869,0.380432,0.611084,0.980972,0.015625,-0.193851,-25.618542,-53.887166,15.874128
1785194391.1009,16:19:51.100,17,false,0.478525,-0.502808,0.380493,0.611084,0.996597,0.002441,-0.208011,-25.703517,-53.866879,15.797053
1785194391.1321,16:19:51.132,18,false,0.478592,-0.502808,0.38031,0.611145,1.002945,0.001953,-0.20557,-25.854765,-53.923389,15.727686
1785194391.1632,16:19:51.163,19,false,0.479034,-0.502869,0.380066,0.610901,0.982437,-0.000488,-0.211917,-25.871257,-53.82471,15.665255
1785194391.1944,16:19:51.194,20,false,0.479986,-0.503052,0.3797,0.610229,0.997086,0.01416,-0.2168,-25.871146,-53.795714,15.848329
1785194391.2255,16:19:51.225,21,false,0.480231,-0.503235,0.379639,0.609924,1.005875,0.015137,-0.210941,-25.736461,-53.859341,15.848604
1785194391.2566,16:19:51.256,22,false,0.480877,-0.504028,0.378845,0.609253,0.975601,0.009277,-0.208011,-25.764783,-53.841836,15.774081
1785194391.288,16:19:51.288,23,false,0.481197,-0.504395,0.37854,0.608887,1.003433,0.011231,-0.216312,-25.835135,-53.826082,15.811688
1785194391.3193,16:19:51.319,24,false,0.482043,-0.505249,0.377991,0.607849,0.991714,0.025391,-0.204105,-25.928359,-53.811903,15.770765
1785194391.3507,16:19:51.350,25,false,0.48284,-0.506409,0.376892,0.606934,0.993668,0.050294,-0.210941,-26.012261,-53.724372,15.629257
1785194391.382,16:19:51.382,26,false,0.483688,-0.507385,0.37616,0.605896,1.006363,0.041993,-0.204105,-25.908326,-53.570826,15.651439
1785194391.4133,16:19:51.413,27,false,0.48471,-0.509033,0.375366,0.604187,0.991226,0.048829,-0.204105,-25.919462,-53.432634,15.746171
1785194391.4447,16:19:51.444,28,false,0.485402,-0.510376,0.374512,0.603027,0.997086,0.06006,-0.19678,-25.929484,-53.353123,15.756661
1785194391.4758,16:19:51.475,29,false,0.48652,-0.512024,0.373657,0.601257,0.988296,0.053223,-0.202152,-25.938504,-53.31147,15.766102
1785194391.507,16:19:51.507,30,false,0.487105,-0.512817,0.373474,0.60022,0.992203,0.072267,-0.192386,-26.081207,-53.288937,15.819461
1785194391.5381,16:19:51.538,31,false,0.48737,-0.513733,0.373047,0.599487,0.983413,0.040528,-0.203616,-26.045147,-53.074257,15.897391
1785194391.5692,16:19:51.569,0,false,0.487978,-0.514771,0.372192,0.598633,0.971206,0.071778,-0.184573,-26.177185,-52.970768,16.01239
1785194391.6004,16:19:51.600,1,false,0.488524,-0.515137,0.37146,0.598328,0.995621,0.069337,-0.202152,-26.191343,-52.757997,15.936443
1785194391.6317,16:19:51.631,2,false,0.488656,-0.515259,0.371216,0.598267,1.010758,0.064454,-0.197269,-26.159223,-52.716042,15.972767
1785194391.6631,16:19:51.663,3,false,0.488284,-0.51532,0.371521,0.598328,0.990738,0.043458,-0.20557,-26.339669,-52.70819,15.990505
1785194391.6944,16:19:51.694,4,false,0.487508,-0.515869,0.371582,0.59845,0.998062,0.054688,-0.197269,-26.412347,-52.461862,16.096193
1785194391.7257,16:19:51.725,5,false,0.486949,-0.516663,0.371704,0.598145,0.997086,0.048829,-0.203128,-26.373081,-52.479428,16.071681
1785194391.7571,16:19:51.757,6,false,0.486868,-0.516907,0.371765,0.597961,1.005875,0.045411,-0.190921,-26.367649,-52.435422,16.169251
1785194391.7884,16:19:51.788,7,false,0.487008,-0.5177,0.371948,0.597046,0.985855,0.062501,-0.189944,-26.377714,-52.41077,16.316879
1785194391.8196,16:19:51.819,8,false,0.487833,-0.518005,0.372009,0.596069,0.994644,0.068849,-0.193362,-26.461542,-52.388584,16.345067
1785194391.8507,16:19:51.850,9,false,0.488599,-0.518555,0.371704,0.595154,0.993179,0.083009,-0.181155,-26.462218,-52.338709,16.325575
1785194391.8818,16:19:51.881,10,false,0.489073,-0.518616,0.371582,0.594788,0.98439,0.082521,-0.176761,-26.492733,-52.219052,16.382802
1785194391.913,16:19:51.913,11,false,0.489221,-0.518494,0.37146,0.594849,0.990738,0.066896,-0.174807,-26.400567,-52.275852,16.419352
1785194391.9441,16:19:51.944,12,false,0.488504,-0.51825,0.371277,0.595764,1.00734,0.050294,-0.194827,-26.467156,-52.326973,16.377478
1785194391.9753,16:19:51.975,13,false,0.487655,-0.518005,0.37146,0.596558,0.985367,0.052735,-0.194339,-26.676624,-52.40289,16.444468
1785194392.0064,16:19:52.006,14,false,0.487233,-0.517883,0.371399,0.597046,1.002457,0.054688,-0.18555,-26.640838,-52.321676,16.295405
1785194392.0377,16:19:52.037,15,false,0.486532,-0.517944,0.371643,0.597412,1.011734,0.053223,-0.186526,-26.548814,-52.23363,16.385557
1785194392.0691,16:19:52.069,16,false,0.485839,-0.517822,0.372131,0.597778,1.002457,0.056641,-0.184573,-26.615532,-52.079619,16.257339
1785194392.1004,16:19:52.100,17,false,0.485993,-0.517212,0.373169,0.597534,0.989761,0.058106,-0.186526,-26.481178,-52.06064,16.351297
1785194392.1318,16:19:52.131,18,false,0.486356,-0.516907,0.373413,0.597351,1.000992,0.066896,-0.181155,-26.28549,-52.178144,16.435859
1785194392.1629,16:19:52.162,19,false,0.486275,-0.516479,0.373718,0.597595,0.986343,0.062013,-0.185061,-26.393494,-52.089497,16.392334
1785194392.194,16:19:52.194,20,false,0.485738,-0.516296,0.374084,0.597961,0.986343,0.055177,-0.191897,-26.356113,-52.144299,16.338208
1785194392.2254,16:19:52.225,21,false,0.48595,-0.516052,0.374146,0.597961,0.976089,0.037598,-0.194827,-26.352378,-52.133806,16.27454
1785194392.2565,16:19:52.256,22,false,0.487314,-0.515259,0.374634,0.597229,0.987808,0.053712,-0.205081,-26.289201,-52.288855,16.232194
1785194392.2877,16:19:52.287,23,false,0.488047,-0.514954,0.374878,0.596741,0.994156,0.078614,-0.213382,-26.337019,-52.27886,16.268851
1785194392.3188,16:19:52.318,24,false,0.489802,-0.514221,0.375244,0.595703,1.029801,0.112306,-0.207523,-26.409962,-52.284818,16.271934
1785194392.3499,16:19:52.349,25,false,0.489751,-0.514099,0.375671,0.595581,1.017594,0.111818,-0.189944,-26.341026,-52.200458,16.513971
1785194392.3811,16:19:52.381,26,false,0.48662,-0.514893,0.376038,0.597229,1.012222,0.070802,-0.186038,-26.353754,-52.199303,16.52245
1785194392.4124,16:19:52.412,27,false,0.483477,-0.51593,0.375854,0.598999,0.986343,0.041505,-0.160159,-26.380162,-52.138448,16.500174
1785194392.4438,16:19:52.443,28,false,0.480462,-0.516724,0.37561,0.600891,0.97023,0.0,-0.166995,-26.254391,-52.233217,16.524987
1785194392.4751,16:19:52.475,29,false,0.477978,-0.516724,0.375061,0.60321,0.969741,-0.015625,-0.175296,-26.260828,-52.168971,16.472549
1785194392.5064,16:19:52.506,30,false,0.47761,-0.515991,0.374573,0.604431,0.989761,-0.000977,-0.186038,-26.206806,-52.245733,16.335632
1785194392.5376,16:19:52.537,31,false,0.478145,-0.514526,0.374329,0.605408,0.979507,0.033204,-0.205081,-26.247909,-52.150328,16.272222
1785194392.5687,16:19:52.568,0,false,0.479584,-0.510742,0.375,0.607056,1.003922,0.051759,-0.221683,-26.329764,-52.243909,16.245061
1785194392.5999,16:19:52.599,1,false,0.479755,-0.507629,0.376038,0.608887,1.003433,0.058106,-0.206058,-26.358571,-52.298224,16.220616
1785194392.631,16:19:52.631,2,false,0.479042,-0.503174,0.378174,0.611816,1.0215,0.052735,-0.21387,-26.324682,-52.362061,16.034123
1785194392.6621,16:19:52.662,3,false,0.47803,-0.501587,0.379089,0.613342,0.965347,0.021973,-0.207034,-26.279229,-52.509238,15.851326
1785194392.6933,16:19:52.693,4,false,0.474726,-0.497009,0.381531,0.618103,0.971695,0.002441,-0.232425,-26.283182,-52.641697,15.791485
1785194392.7244,16:19:52.724,5,false,0.472324,-0.49469,0.382568,0.621155,0.975113,0.006836,-0.235355,-26.107294,-52.820726,15.797444
1785194392.7558,16:19:52.755,6,false,0.47011,-0.493164,0.383789,0.623291,1.051286,0.009277,-0.28809,-25.859271,-52.922036,15.713084
1785194392.7871,16:19:52.787,7,false,0.467792,-0.493774,0.385437,0.623535,1.037613,0.013184,-0.240238,-25.755682,-53.087985,15.667067
1785194392.8185,16:19:52.818,8,false,0.463659,-0.495239,0.388245,0.623718,1.084489,0.018555,-0.223148,-25.782082,-53.327061,15.715375
1785194392.8498,16:19:52.849,9,false,0.452851,-0.497681,0.395264,0.625305,1.021012,-0.033204,-0.181643,-25.716119,-53.527277,15.743899
1785194392.8811,16:19:52.881,10,false,0.443515,-0.499939,0.400452,0.626892,1.000992,-0.069825,-0.183108,-25.716568,-53.647655,15.754616
1785194392.9125,16:19:52.912,11,false,0.429895,-0.503662,0.407043,0.62915,0.880385,-0.082033,-0.132815,-25.642203,-53.950395,15.973615
1785194392.9438,16:19:52.943,12,false,0.423265,-0.50708,0.408142,0.630188,0.937026,-0.083497,-0.121584,-25.635089,-54.192954,15.976315
1785194392.9752,16:19:52.975,13,false,0.418502,-0.510742,0.407166,0.631042,0.954604,-0.086427,-0.109865,-25.494103,-54.50098,16.173144
1785194393.0065,16:19:53.006,14,false,0.413585,-0.515381,0.402527,0.633484,0.978531,-0.063966,-0.109377,-25.441984,-54.718388,16.350291
1785194393.0376,16:19:53.037,15,false,0.41067,-0.517456,0.39801,0.636536,0.98439,-0.067872,-0.130373,-25.395077,-54.794424,16.405046
1785194393.0688,16:19:53.068,16,false,0.407866,-0.517761,0.393616,0.640808,0.977554,-0.118166,-0.160647,-25.337907,-54.997442,16.544048
1785194393.0999,16:19:53.099,17,false,0.40393,-0.515015,0.388855,0.648376,0.969741,-0.129885,-0.200687,-25.241593,-55.135296,16.489705
1785194393.1313,16:19:53.131,18,false,0.401942,-0.512573,0.386475,0.652954,0.985855,-0.126467,-0.194339,-25.125002,-55.229457,16.410888
1785194393.1626,16:19:53.162,19,false,0.400468,-0.508972,0.384583,0.657776,0.979507,-0.138186,-0.218753,-25.064932,-55.329155,16.17546
1785194393.1939,16:19:53.193,20,false,0.400377,-0.508057,0.384216,0.658752,0.999527,-0.116213,-0.204105,-24.995915,-55.4787,16.157975
1785194393.2253,16:19:53.225,21,false,0.400929,-0.506226,0.384277,0.65979,1.013687,-0.107912,-0.21973,-24.814169,-55.388982,16.007654
1785194393.2566,16:19:53.256,22,false,0.401163,-0.50531,0.385132,0.659851,1.011734,-0.128908,-0.20264,-24.770228,-55.338143,15.977042
1785194393.288,16:19:53.288,23,false,0.402087,-0.503479,0.388123,0.658936,1.012711,-0.120607,-0.200198,-24.611051,-55.516696,15.844814
1785194393.3193,16:19:53.319,24,false,0.402707,-0.501831,0.391052,0.658081,1.003922,-0.130373,-0.173831,-24.707052,-55.572717,15.680948
1785194393.3504,16:19:53.350,25,false,0.403794,-0.499878,0.39447,0.65686,0.999039,-0.119142,-0.187503,-24.823362,-55.802582,15.638145
1785194393.3816,16:19:53.381,26,false,0.405305,-0.497437,0.398926,0.65509,0.989761,-0.114748,-0.18262,-24.868225,-55.88983,15.659437
1785194393.4127,16:19:53.412,27,false,0.405914,-0.496155,0.401794,0.653931,0.981949,-0.125978,-0.183597,-24.803925,-56.102937,15.469247
1785194393.4439,16:19:53.443,28,false,0.406197,-0.494995,0.404419,0.653015,0.997574,-0.136233,-0.185061,-24.686239,-56.27978,15.597153
1785194393.475,16:19:53.475,29,false,0.406748,-0.494141,0.407166,0.651611,0.958511,-0.152834,-0.186038,-24.595276,-56.349216,15.473006
1785194393.5061,16:19:53.506,30,false,0.407614,-0.494141,0.407471,0.650879,0.972183,-0.156741,-0.175784,-24.618086,-56.426662,15.450997
1785194393.5375,16:19:53.537,31,false,0.41141,-0.493835,0.407043,0.648987,0.992691,-0.097658,-0.185061,-24.563846,-56.466455,15.505959
1785194393.5688,16:19:53.568,0,false,0.414171,-0.493774,0.406067,0.647888,0.992691,-0.086915,-0.189944,-24.589799,-56.532177,15.660101
1785194393.6002,16:19:53.600,1,false,0.416607,-0.493958,0.404907,0.646912,0.991714,-0.132815,-0.195804,-24.568295,-56.666096,15.724059
1785194393.6315,16:19:53.631,2,false,0.420307,-0.493958,0.40332,0.645508,0.995132,-0.087404,-0.19678,-24.623711,-56.681946,15.721807
1785194393.6628,16:19:53.662,3,false,0.422972,-0.493774,0.40271,0.644287,0.985367,-0.107424,-0.198245,-24.61377,-56.486858,15.734733
1785194393.6942,16:19:53.694,4,false,0.427628,-0.493164,0.401367,0.642517,0.97023,-0.087404,-0.189944,-24.574915,-56.565493,15.746367
1785194393.7254,16:19:53.725,5,false,0.429145,-0.492859,0.401001,0.641968,0.993668,-0.079103,-0.208499,-24.5549,-56.591404,15.876468
1785194393.7566,16:19:53.756,6,false,0.433547,-0.491516,0.400452,0.640381,1.000015,-0.07715,-0.200687,-24.536886,-56.539954,15.858975
1785194393.7877,16:19:53.787,7,false,0.435875,-0.490967,0.399963,0.639526,0.997574,-0.061524,-0.202152,-24.655258,-56.553464,15.858185
1785194393.8188,16:19:53.818,8,false,0.439097,-0.490051,0.399414,0.638367,0.992691,-0.057618,-0.212406,-24.687024,-56.520762,15.782704
1785194393.85,16:19:53.850,9,false,0.440573,-0.489441,0.399414,0.637817,1.006363,-0.07422,-0.209476,-24.700659,-56.625915,15.774587
1785194393.8811,16:19:53.881,10,false,0.441745,-0.488831,0.399841,0.637207,0.98732,-0.063966,-0.204105,-24.877423,-56.585968,15.782236
1785194393.9125,16:19:53.912,11,false,0.443252,-0.488159,0.400452,0.636292,1.00148,-0.065431,-0.206058,-24.797249,-56.564969,15.669488
1785194393.9438,16:19:53.943,12,false,0.444044,-0.487854,0.400818,0.635742,0.992691,-0.053712,-0.194827,-24.979308,-56.546071,15.568016
1785194393.9751,16:19:53.975,13,false,0.444557,-0.487793,0.401001,0.635315,0.984878,-0.06006,-0.194827,-24.918854,-56.454293,15.431829
1785194394.0065,16:19:54.006,14,false,0.445844,-0.487488,0.401489,0.634338,0.991226,-0.074708,-0.202152,-24.834537,-56.416554,15.4588
1785194394.0376,16:19:54.037,15,false,0.446711,-0.487366,0.401733,0.633667,0.980972,-0.075685,-0.201663,-24.848375,-56.397543,15.423258
1785194394.0688,16:19:54.068,16,false,0.448273,-0.487122,0.401733,0.632751,0.98439,-0.072267,-0.205081,-24.815967,-56.529971,15.600624
1785194394.0999,16:19:54.099,17,false,0.449019,-0.486938,0.401794,0.632324,1.009293,-0.051759,-0.207523,-24.831662,-56.394942,15.730346
1785194394.131,16:19:54.131,18,false,0.449978,-0.486816,0.401733,0.631775,0.983902,-0.058106,-0.206058,-24.666341,-56.363138,15.727464
1785194394.1622,16:19:54.162,19,false,0.44987,-0.487061,0.401367,0.631897,0.988785,-0.061524,-0.200687,-24.771768,-56.349469,15.560379
1785194394.1933,16:19:54.193,20,false,0.449554,-0.487366,0.401062,0.63208,1.000992,-0.060548,-0.213382,-24.851698,-56.35212,15.469818
1785194394.2245,16:19:54.224,21,false,0.449288,-0.487244,0.401123,0.632324,0.987808,-0.069337,-0.205081,-24.923635,-56.324599,15.448128
1785194394.2556,16:19:54.255,22,false,0.449171,-0.487,0.40155,0.632324,0.990249,-0.081544,-0.211917,-24.958471,-56.359645,15.563191
1785194394.2869,16:19:54.286,23,false,0.449502,-0.48645,0.402039,0.632202,0.981949,-0.076173,-0.208499,-24.974869,-56.331371,15.397579
1785194394.3183,16:19:54.318,24,false,0.449762,-0.486267,0.402161,0.63208,0.982437,-0.070802,-0.211917,-25.124212,-56.425555,15.398067
1785194394.3496,16:19:54.349,25,false,0.450775,-0.485718,0.402649,0.63147,0.999527,-0.073243,-0.198245,-25.109082,-56.375736,15.473275
1785194394.381,16:19:54.381,26,false,0.451606,-0.485168,0.402954,0.631104,0.988296,-0.072267,-0.215824,-25.095466,-56.540253,15.436286
1785194394.4123,16:19:54.412,27,false,0.452153,-0.484802,0.403259,0.630798,0.988785,-0.057618,-0.214359,-25.098164,-56.643457,15.417949
1785194394.4436,16:19:54.443,28,false,0.453143,-0.484192,0.403931,0.630127,0.986831,-0.063478,-0.208499,-25.025824,-56.586802,15.371538
1785194394.475,16:19:54.475,29,false,0.453327,-0.484009,0.404419,0.629822,0.990249,-0.066896,-0.207523,-25.020533,-56.595627,15.314815
1785194394.5061,16:19:54.506,30,false,0.453309,-0.484009,0.404724,0.629639,1.000992,-0.060548,-0.208011,-24.836325,-56.424124,15.353487
1785194394.5373,16:19:54.537,31,false,0.453124,-0.483887,0.405457,0.629395,0.98439,-0.07715,-0.201175,-24.879892,-56.509033,15.403245
1785194394.5684,16:19:54.568,0,false,0.453011,-0.483765,0.405823,0.629333,0.979019,-0.062989,-0.196292,-24.844333,-56.525636,15.403166
1785194394.5995,16:19:54.599,1,false,0.453104,-0.483398,0.40625,0.629272,0.973648,-0.070802,-0.203616,-24.857191,-56.645255,15.582541
1785194394.6307,16:19:54.630,2,false,0.453209,-0.483276,0.406372,0.629211,0.988296,-0.067872,-0.200687,-24.928579,-56.737959,15.654256
1785194394.662,16:19:54.662,3,false,0.453181,-0.48291,0.406555,0.629395,0.98146,-0.08838,-0.210452,-24.813382,-56.836345,15.629076
1785194394.6934,16:19:54.693,4,false,0.453242,-0.482483,0.406616,0.629639,0.989761,-0.082521,-0.210452,-24.754566,-56.700586,15.681183
1785194394.7247,16:19:54.724,5,false,0.453702,-0.481628,0.406738,0.629883,0.982437,-0.081544,-0.208988,-24.686678,-56.817664,15.743034
1785194394.756,16:19:54.756,6,false,0.45422,-0.480957,0.40686,0.629944,0.993179,-0.083009,-0.214847,-24.775117,-56.698727,15.664115
1785194394.7874,16:19:54.787,7,false,0.454303,-0.48053,0.406799,0.630249,0.985855,-0.085939,-0.225101,-24.720128,-56.756175,15.533272
1785194394.8187,16:19:54.818,8,false,0.454764,-0.479858,0.406982,0.63031,0.976089,-0.079591,-0.210452,-24.610822,-56.837787,15.609913
1785194394.8501,16:19:54.850,9,false,0.455007,-0.479553,0.407166,0.630249,0.985367,-0.076173,-0.208988,-24.572262,-56.746745,15.55926
1785194394.8812,16:19:54.881,10,false,0.455304,-0.479431,0.407166,0.630127,0.993179,-0.079103,-0.216312,-24.687096,-56.844253,15.588441
1785194394.9124,16:19:54.912,11,false,0.455652,-0.479553,0.407104,0.629822,0.990738,-0.070802,-0.219242,-24.715678,-56.827334,15.749289
1785194394.9435,16:19:54.943,12,false,0.455841,-0.479614,0.407104,0.629639,0.991714,-0.078614,-0.210941,-24.741402,-57.02146,15.789375
1785194394.9746,16:19:54.974,13,false,0.45602,-0.479553,0.407166,0.629517,0.984878,-0.074708,-0.208988,-24.854276,-57.031681,15.780591
1785194395.0058,16:19:55.005,14,false,0.456371,-0.479492,0.40741,0.62915,0.987808,-0.069337,-0.206058,-24.896048,-57.055835,15.922223
1785194395.0371,16:19:55.037,15,false,0.456297,-0.479614,0.407349,0.62915,0.980484,-0.080079,-0.202152,-24.784104,-57.017757,15.870247
1785194395.0685,16:19:55.068,16,false,0.456001,-0.479919,0.407227,0.629211,0.986343,-0.065431,-0.204593,-24.623539,-56.95358,15.853375
1785194395.0998,16:19:55.099,17,false,0.455991,-0.47998,0.407166,0.629211,0.992691,-0.072267,-0.214359,-24.583707,-57.105174,15.808284
1785194395.1311,16:19:55.131,18,false,0.45558,-0.480286,0.406982,0.629395,0.985855,-0.076661,-0.193851,-24.78712,-57.226654,15.752747
1785194395.1625,16:19:55.162,19,false,0.4556,-0.480347,0.406982,0.629333,0.983413,-0.080079,-0.204593,-24.730931,-57.096726,15.717718
1785194395.1938,16:19:55.193,20,false,0.455878,-0.480347,0.40686,0.629211,0.992203,-0.069337,-0.212406,-24.934575,-57.054559,15.83573
1785194395.2252,16:19:55.225,21,false,0.456284,-0.480103,0.407166,0.628906,0.984878,-0.059083,-0.207034,-24.923455,-56.956794,16.001757
1785194395.2565,16:19:55.256,22,false,0.456545,-0.479858,0.407349,0.628784,0.98732,-0.065919,-0.214359,-24.88354,-57.063205,15.986688
1785194395.2876,16:19:55.287,23,false,0.456693,-0.479797,0.407349,0.628723,0.988785,-0.065919,-0.209964,-24.892477,-57.084206,15.928265
1785194395.3188,16:19:55.318,24,false,0.456787,-0.479736,0.40741,0.628662,0.991226,-0.067872,-0.212406,-24.840706,-57.088152,15.905592
1785194395.3499,16:19:55.349,25,false,0.456881,-0.479675,0.407471,0.628601,0.973159,-0.079103,-0.203616,-24.794111,-57.136566,15.945001
1785194395.3811,16:19:55.381,26,false,0.45689,-0.479614,0.407532,0.628601,0.985855,-0.072267,-0.211429,-24.826946,-57.060508,15.875793
1785194395.4122,16:19:55.412,27,false,0.456954,-0.479553,0.407532,0.628601,0.991226,-0.080568,-0.212894,-24.826589,-57.066824,15.858367
1785194395.4435,16:19:55.443,28,false,0.456797,-0.479675,0.407471,0.628662,0.987808,-0.068849,-0.2168,-24.661775,-56.967833,15.947361
1785194395.4749,16:19:55.474,29,false,0.456738,-0.479675,0.407349,0.628784,0.980972,-0.07715,-0.211429,-24.633074,-56.983417,15.818101
1785194395.5062,16:19:55.506,30,false,0.456707,-0.479309,0.407532,0.628967,0.990738,-0.075685,-0.206546,-24.592289,-57.057258,15.851306
1785194395.5376,16:19:55.537,31,false,0.456622,-0.479309,0.407532,0.629028,0.983902,-0.066896,-0.2168,-24.540628,-56.98913,15.836329
1785194395.5687,16:19:55.568,0,false,0.456645,-0.479004,0.407959,0.628967,0.994156,-0.092287,-0.204593,-24.613765,-56.987631,15.912572
1785194395.6,16:19:55.600,1,false,0.456842,-0.478821,0.408142,0.628845,0.989273,-0.078614,-0.219242,-24.64968,-57.061051,15.801745
1785194395.6314,16:19:55.631,2,false,0.456739,-0.478943,0.40802,0.628906,0.986343,-0.075196,-0.211917,-24.622188,-57.067313,15.821632
1785194395.6625,16:19:55.662,3,false,0.456739,-0.478943,0.40802,0.628906,0.98146,-0.072267,-0.207523,-24.522676,-57.252395,15.76476
1785194395.6937,16:19:55.693,4,false,0.456581,-0.479065,0.407959,0.628967,0.996597,-0.075196,-0.210941,-24.5677,-57.194662,15.773392
1785194395.7248,16:19:55.724,5,false,0.456547,-0.479126,0.40802,0.628906,0.983902,-0.06836,-0.198245,-24.458683,-57.172609,15.676483
1785194395.7559,16:19:55.755,6,false,0.456715,-0.479126,0.40802,0.628784,0.978531,-0.083497,-0.220218,-24.450291,-57.287346,15.813572
1785194395.7871,16:19:55.787,7,false,0.45676,-0.479187,0.407898,0.628784,0.995621,-0.071778,-0.209476,-24.367969,-57.19621,15.862184
1785194395.8184,16:19:55.818,8,false,0.456937,-0.479126,0.407959,0.628662,0.975601,-0.073243,-0.206058,-24.33874,-57.233818,16.055473
1785194395.8498,16:19:55.849,9,false,0.457115,-0.479065,0.40802,0.62854,0.990249,-0.069825,-0.213382,-24.357296,-57.13308,16.06494
1785194395.8811,16:19:55.881,10,false,0.457143,-0.478882,0.408203,0.62854,0.993179,-0.079103,-0.212406,-24.448766,-57.147094,16.043553
1785194395.9124,16:19:55.912,11,false,0.457216,-0.47876,0.408264,0.62854,0.987808,-0.070314,-0.210452,-24.516135,-57.069983,16.069167
1785194395.9438,16:19:55.943,12,false,0.457114,-0.478882,0.408142,0.628601,0.988785,-0.073732,-0.208988,-24.651536,-57.045444,16.062311
1785194395.9751,16:19:55.975,13,false,0.457153,-0.478821,0.408264,0.62854,0.980972,-0.081544,-0.20557,-24.549089,-57.053267,16.086049
1785194396.0063,16:19:56.006,14,false,0.457153,-0.478821,0.408264,0.62854,0.98732,-0.085451,-0.20557,-24.651287,-57.060308,15.972828
1785194396.0376,16:19:56.037,15,false,0.457445,-0.478882,0.407959,0.628479,1.002457,-0.07129,-0.213382,-24.668496,-57.036737,15.945699
1785194396.0687,16:19:56.068,16,false,0.457613,-0.478882,0.407959,0.628357,0.983902,-0.073732,-0.215335,-24.728846,-57.030477,16.011005
1785194396.0999,16:19:56.099,17,false,0.458607,-0.478943,0.407898,0.627625,0.996597,-0.086427,-0.230472,-24.708391,-57.05475,15.995012
1785194396.131,16:19:56.131,18,false,0.459678,-0.479614,0.407593,0.626526,1.009781,-0.085939,-0.220706,-24.600259,-57.031735,15.965664
1785194396.1622,16:19:56.162,19,false,0.46309,-0.482422,0.406494,0.622559,1.006363,-0.109865,-0.227054,-24.622571,-57.040929,15.939251
1785194396.1935,16:19:56.193,20,false,0.467115,-0.485474,0.405518,0.617798,1.008804,-0.113283,-0.228519,-24.612744,-57.064157,15.930433
1785194396.2248,16:19:56.224,21,false,0.471042,-0.488525,0.405273,0.612549,1.003433,-0.089845,-0.211429,-24.708576,-56.815894,15.937451
1785194396.2562,16:19:56.256,22,false,0.476515,-0.491699,0.406494,0.604919,0.978531,-0.016114,-0.168948,-24.839687,-56.756949,16.03349
1785194396.2873,16:19:56.287,23,false,0.479611,-0.493164,0.407593,0.600525,0.982437,0.013672,-0.174807,-24.927779,-56.629129,16.119925
1785194396.3185,16:19:56.318,24,false,0.482132,-0.493896,0.408752,0.597107,0.962905,0.041505,-0.156741,-25.022016,-56.603814,16.28744
1785194396.3496,16:19:56.349,25,false,0.484385,-0.493225,0.410278,0.594788,0.973159,0.061524,-0.158694,-25.047013,-56.491308,16.527926
1785194396.3807,16:19:56.380,26,false,0.484757,-0.492004,0.41095,0.595032,0.988296,0.060548,-0.175296,-25.129327,-56.405006,16.624733
1785194396.4119,16:19:56.411,27,false,0.483498,-0.488953,0.412354,0.597595,0.983902,0.036133,-0.174319,-25.293132,-56.282473,16.75672
1785194396.443,16:19:56.443,28,false,0.482128,-0.486328,0.413513,0.600037,0.994644,0.010254,-0.18262,-25.335879,-56.351639,16.875509
1785194396.4742,16:19:56.474,29,false,0.480417,-0.483521,0.414978,0.602661,0.997574,-0.026856,-0.188479,-25.40426,-56.413889,16.952512
1785194396.5053,16:19:56.505,30,false,0.477319,-0.479919,0.416504,0.606934,0.985855,-0.070314,-0.190921,-25.450848,-56.45496,16.932091
1785194396.5366,16:19:56.536,31,false,0.475733,-0.47821,0.416809,0.609314,0.990249,-0.08838,-0.206058,-25.418009,-56.491924,16.94362
1785194396.568,16:19:56.568,0,false,0.473968,-0.477173,0.415894,0.612122,0.993668,-0.087892,-0.207034,-25.29873,-56.435468,17.013811
1785194396.5993,16:19:56.599,1,false,0.473585,-0.477173,0.415161,0.612915,0.990738,-0.075196,-0.203128,-25.251195,-56.623919,16.777906
1785194396.6307,16:19:56.630,2,false,0.472881,-0.478027,0.412354,0.614685,0.989761,-0.051759,-0.210941,-25.148598,-56.688849,16.7899
1785194396.662,16:19:56.662,3,false,0.47286,-0.478577,0.410645,0.615417,0.983902,-0.049317,-0.208499,-25.220753,-56.732331,16.860509
1785194396.6933,16:19:56.693,4,false,0.472465,-0.479431,0.408264,0.616638,0.987808,-0.038575,-0.218753,-25.136153,-56.696696,16.774519
1785194396.7247,16:19:56.724,5,false,0.471802,-0.479736,0.407288,0.617554,0.993668,-0.027832,-0.215335,-24.985245,-56.634717,16.846667
1785194396.7558,16:19:56.755,6,false,0.470983,-0.479492,0.407227,0.618408,0.988785,-0.037598,-0.208499,-24.984012,-56.668659,16.881692
1785194396.787,16:19:56.787,7,false,0.469497,-0.478882,0.407898,0.619568,0.98732,-0.042969,-0.224613,-25.057672,-56.729115,16.853399
1785194396.8181,16:19:56.818,8,false,0.468444,-0.47821,0.408875,0.620239,0.991226,-0.048341,-0.215824,-25.06415,-56.768571,16.588674
1785194396.8492,16:19:56.849,9,false,0.467385,-0.477356,0.410156,0.62085,0.984878,-0.065919,-0.214847,-25.010165,-56.68445,16.619591
1785194396.8804,16:19:56.880,10,false,0.46646,-0.476074,0.412048,0.621277,0.991226,-0.07422,-0.201663,-24.931671,-56.743326,16.647416
1785194396.9115,16:19:56.911,11,false,0.466104,-0.475708,0.412781,0.621338,0.98732,-0.068849,-0.204593,-24.87598,-56.676684,16.687412
1785194396.9429,16:19:56.942,12,false,0.465833,-0.475098,0.413513,0.621521,0.992691,-0.074708,-0.200687,-24.810904,-56.781199,16.633686
1785194396.9742,16:19:56.974,13,false,0.465648,-0.474854,0.413818,0.621643,0.98146,-0.073732,-0.201663,-24.692521,-56.890215,16.675055
1785194397.0055,16:19:57.005,14,false,0.46558,-0.474121,0.414185,0.622009,0.993668,-0.085939,-0.208499,-24.72056,-56.928515,16.667426
1785194397.0369,16:19:57.036,15,false,0.465596,-0.473999,0.414307,0.622009,0.982925,-0.09424,-0.211429,-24.805611,-57.0228,16.630652
1785194397.0682,16:19:57.068,16,false,0.466022,-0.47406,0.41394,0.621887,0.985367,-0.074708,-0.219242,-24.882157,-57.032888,16.567648
1785194397.0996,16:19:57.099,17,false,0.466378,-0.474243,0.413513,0.621765,0.99855,-0.063478,-0.208499,-24.995909,-57.05692,16.600667
1785194397.1308,16:19:57.130,18,false,0.466348,-0.475281,0.41217,0.621887,1.001968,-0.041016,-0.199222,-25.008564,-57.183226,16.6902
1785194397.1619,16:19:57.161,19,false,0.463648,-0.480103,0.405701,0.624451,0.976577,0.088869,-0.169924,-24.945184,-57.177271,16.621241
1785194397.1931,16:19:57.193,20,false,0.45798,-0.486389,0.395752,0.630127,0.952163,0.087892,-0.179202,-24.947957,-57.156958,16.499363
1785194397.2242,16:19:57.224,21,false,0.444195,-0.497437,0.374146,0.644409,0.970718,0.050782,-0.23975,-25.099991,-57.033999,16.284995
1785194397.2554,16:19:57.255,22,false,0.431985,-0.505798,0.356445,0.656128,0.970718,0.023926,-0.275883,-25.07233,-56.86352,16.002341
1785194397.2865,16:19:57.286,23,false,0.418238,-0.514038,0.337891,0.668335,0.989273,-0.012207,-0.303716,-25.062388,-56.620366,15.65823
1785194397.3178,16:19:57.317,24,false,0.396172,-0.525208,0.312622,0.685181,0.996109,-0.082521,-0.329107,-25.038487,-56.162267,15.198991
1785194397.3492,16:19:57.349,25,false,0.382776,-0.531433,0.298828,0.694092,1.007828,-0.103517,-0.32813,-24.942207,-55.749977,14.815584
1785194397.3805,16:19:57.380,26,false,0.370881,-0.536926,0.288147,0.700806,0.982925,-0.12549,-0.312993,-24.765832,-55.154608,14.395748
1785194397.4119,16:19:57.411,27,false,0.357617,-0.542908,0.27771,0.707275,0.992691,-0.103517,-0.289555,-24.562232,-54.558961,13.928173
1785194397.4432,16:19:57.443,28,false,0.351892,-0.545837,0.273804,0.709412,0.983902,-0.097169,-0.272465,-24.423855,-53.978017,13.492402
1785194397.4746,16:19:57.474,29,false,0.346554,-0.549316,0.27063,0.710571,0.968276,-0.053712,-0.253422,-24.389038,-53.529937,13.100207
1785194397.5057,16:19:57.505,30,false,0.345473,-0.550049,0.270203,0.710693,0.979019,-0.045899,-0.244633,-24.357702,-53.007034,12.822002
1785194397.5368,16:19:57.536,31,false,0.343626,-0.551208,0.270996,0.710388,0.996109,-0.087404,-0.269047,-24.344454,-52.49156,12.616478
1785194397.568,16:19:57.568,0,false,0.345584,-0.550049,0.275146,0.70874,0.990738,-0.119142,-0.284184,-24.392347,-52.117356,12.491322
1785194397.5991,16:19:57.599,1,false,0.354341,-0.545715,0.287842,0.702698,0.996597,-0.142092,-0.282231,-24.390588,-51.810481,12.274005
1785194397.6303,16:19:57.630,2,false,0.363944,-0.541138,0.30011,0.696167,0.994156,-0.129885,-0.260746,-24.254421,-51.519339,12.19805
1785194397.6614,16:19:57.661,3,false,0.376155,-0.535461,0.314453,0.687683,0.99855,-0.095216,-0.256352,-24.32627,-51.361988,12.054922
1785194397.6927,16:19:57.692,4,false,0.397849,-0.525757,0.336609,0.672302,0.965835,-0.015625,-0.230961,-24.301212,-51.280188,12.060691
1785194397.7241,16:19:57.724,5,false,0.412595,-0.518921,0.350464,0.66156,0.981949,-0.006836,-0.248539,-24.308567,-51.356106,12.140652
1785194397.7554,16:19:57.755,6,false,0.426591,-0.51239,0.363525,0.650635,0.995621,0.047364,-0.224125,-24.434817,-51.57397,12.392063
1785194397.7868,16:19:57.786,7,false,0.444595,-0.504211,0.380005,0.635376,0.993179,0.059571,-0.21387,-24.563396,-51.785002,12.633287
1785194397.8179,16:19:57.817,8,false,0.453606,-0.500244,0.388,0.627258,0.988296,0.073243,-0.201663,-24.529579,-52.079608,12.910204
1785194397.849,16:19:57.849,9,false,0.463257,-0.496094,0.39624,0.618286,0.973648,0.072267,-0.171878,-24.663635,-52.359707,13.144476
1785194397.8802,16:19:57.880,10,false,0.466956,-0.494568,0.398926,0.61499,0.992203,0.049805,-0.169924,-24.79924,-52.566935,13.519812
1785194397.9113,16:19:57.911,11,false,0.468871,-0.493835,0.399841,0.613525,0.991226,0.023926,-0.170901,-24.996054,-52.932886,13.782846
1785194397.9425,16:19:57.942,12,false,0.469675,-0.493713,0.399048,0.613525,1.001968,0.012696,-0.188968,-25.128325,-53.351965,14.03453
1785194397.9738,16:19:57.973,13,false,0.469249,-0.494019,0.397949,0.614319,0.999527,-0.000977,-0.203128,-25.262322,-53.459966,14.320861
1785194398.0049,16:19:58.004,14,false,0.468384,-0.494568,0.396301,0.615601,1.000992,-0.030762,-0.200687,-25.233381,-53.557168,14.473882
1785194398.0363,16:19:58.036,15,false,0.468006,-0.494812,0.395874,0.615967,0.999039,-0.016602,-0.216312,-25.312012,-53.824096,14.716278
1785194398.0676,16:19:58.067,16,false,0.466677,-0.495728,0.394775,0.616943,0.994644,-0.033204,-0.212406,-25.30801,-54.034423,14.904527
1785194398.099,16:19:58.099,17,false,0.466081,-0.496033,0.394714,0.617188,0.990738,-0.041505,-0.20557,-25.379177,-54.148948,15.133766
1785194398.1303,16:19:58.130,18,false,0.465296,-0.49646,0.394531,0.617554,0.995132,-0.038087,-0.201663,-25.473136,-54.341744,15.325127
1785194398.1616,16:19:58.161,19,false,0.465475,-0.496277,0.394836,0.617371,1.005386,-0.030274,-0.193362,-25.423113,-54.380675,15.482398
1785194398.193,16:19:58.193,20,false,0.465576,-0.496216,0.395081,0.617188,0.998062,-0.030762,-0.186038,-25.393048,-54.40076,15.608989
1785194398.2243,16:19:58.224,21,false,0.465517,-0.496277,0.395264,0.617065,0.99855,-0.023438,-0.197269,-25.41085,-54.448744,15.648151
1785194398.2556,16:19:58.255,22,false,0.465899,-0.496033,0.395691,0.616699,0.996109,-0.020996,-0.188479,-25.396964,-54.521837,15.922658
1785194398.2867,16:19:58.286,23,false,0.466236,-0.495728,0.396057,0.616455,0.994156,-0.020508,-0.202152,-25.519051,-54.602575,16.035131
1785194398.3178,16:19:58.317,24,false,0.465926,-0.495911,0.395813,0.616699,0.987808,-0.030762,-0.198245,-25.464438,-54.585515,15.971863
1785194398.349,16:19:58.349,25,false,0.465579,-0.496155,0.39563,0.616882,1.000504,-0.035157,-0.201663,-25.370424,-54.719701,16.034553
1785194398.3801,16:19:58.380,26,false,0.465621,-0.496094,0.395752,0.616821,0.984878,-0.03418,-0.191409,-25.255904,-54.870375,16.120882
1785194398.4113,16:19:58.411,27,false,0.46576,-0.496094,0.395874,0.616638,0.990738,-0.019043,-0.200198,-25.36219,-55.170474,16.138762
1785194398.4426,16:19:58.442,28,false,0.465976,-0.495972,0.396057,0.616455,0.996109,-0.035645,-0.194827,-25.487754,-55.186348,16.124947
1785194398.4739,16:19:58.473,29,false,0.465844,-0.495972,0.396118,0.616516,0.993668,-0.032227,-0.189456,-25.615717,-55.290358,16.052698
1785194398.5053,16:19:58.505,30,false,0.46606,-0.49585,0.396301,0.616333,0.997086,-0.025879,-0.189456,-25.626206,-55.279289,16.107305
1785194398.5366,16:19:58.536,31,false,0.466018,-0.495667,0.396484,0.616394,0.999039,-0.023926,-0.191409,-25.6506,-55.359051,16.096635
1785194398.568,16:19:58.568,0,false,0.466289,-0.495422,0.396851,0.61615,1.00148,-0.023438,-0.195804,-25.717416,-55.25139,16.161802
1785194398.5993,16:19:58.599,1,false,0.466041,-0.495178,0.396973,0.616455,0.990738,-0.024414,-0.188479,-25.732689,-55.259173,16.25036
1785194398.6305,16:19:58.630,2,false,0.465821,-0.494934,0.397156,0.616699,0.999039,-0.038575,-0.192874,-25.731481,-55.206361,16.240339
1785194398.6617,16:19:58.661,3,false,0.465618,-0.494446,0.397339,0.617126,0.996597,-0.036133,-0.195804,-25.730393,-55.278462,16.15655
1785194398.6928,16:19:58.692,4,false,0.465643,-0.494324,0.397461,0.617126,0.992203,-0.032715,-0.191409,-25.78923,-55.358306,16.111049
1785194398.724,16:19:58.724,5,false,0.465469,-0.494385,0.3974,0.617249,0.991714,-0.024903,-0.189944,-25.812275,-55.220812,16.15982
1785194398.7553,16:19:58.755,6,false,0.465287,-0.494202,0.397461,0.617493,0.990738,-0.038575,-0.200687,-25.728339,-55.216699,16.158853
1785194398.7866,16:19:58.786,7,false,0.465509,-0.493774,0.397827,0.617432,0.998062,-0.03125,-0.198734,-25.787382,-55.153181,16.217798
1785194398.818,16:19:58.818,8,false,0.465811,-0.493347,0.398193,0.61731,0.997086,-0.020508,-0.203128,-25.870427,-55.245553,16.225987
1785194398.8493,16:19:58.849,9,false,0.466399,-0.492554,0.398865,0.617065,0.990249,-0.025879,-0.208988,-25.855445,-55.268873,16.218403
1785194398.8807,16:19:58.880,10,false,0.466497,-0.492065,0.399353,0.617065,0.997574,-0.029297,-0.201663,-25.767192,-55.289861,16.211578
1785194398.912,16:19:58.912,11,false,0.466432,-0.491577,0.399841,0.617188,0.992691,-0.041993,-0.195315,-25.702718,-55.443335,16.26525
1785194398.9434,16:19:58.943,12,false,0.466387,-0.491394,0.400024,0.617249,0.995621,-0.036622,-0.20557,-25.734415,-55.491738,16.178971
1785194398.9747,16:19:58.974,13,false,0.466251,-0.490845,0.400574,0.617432,0.994644,-0.039551,-0.19678,-25.822757,-55.550255,16.235904
1785194399.006,16:19:59.006,14,false,0.466039,-0.490417,0.401062,0.617615,0.997086,-0.046876,-0.199222,-25.722819,-55.60292,16.242282
1785194399.0372,16:19:59.037,15,false,0.465791,-0.489868,0.40155,0.61792,0.980484,-0.030762,-0.201663,-25.528198,-55.635365,16.233069
1785194399.0683,16:19:59.068,16,false,0.46563,-0.489563,0.401733,0.618164,0.986343,-0.03125,-0.204593,-25.47267,-55.589796,16.194869
1785194399.0995,16:19:59.099,17,false,0.465514,-0.489319,0.401978,0.618286,0.990249,-0.034668,-0.198734,-25.40774,-55.668414,16.175443
1785194399.1306,16:19:59.130,18,false,0.465599,-0.489014,0.402344,0.618225,1.000015,-0.035645,-0.200198,-25.468935,-55.69431,16.217775
1785194399.1617,16:19:59.161,19,false,0.465432,-0.488892,0.402405,0.618408,1.00441,-0.052735,-0.208011,-25.434287,-55.837246,16.061474
1785194399.1929,16:19:59.192,20,false,0.465088,-0.488708,0.402649,0.618652,0.983902,-0.043946,-0.202152,-25.462919,-55.846258,16.040434
1785194399.2242,16:19:59.224,21,false,0.465307,-0.488403,0.402954,0.61853,0.982925,-0.044923,-0.203616,-25.324195,-55.719784,16.141129
1785194399.2556,16:19:59.255,22,false,0.465318,-0.488342,0.403015,0.61853,0.995132,-0.035645,-0.212894,-25.37879,-55.830266,16.231754
1785194399.2869,16:19:59.286,23,false,0.46538,-0.488159,0.403259,0.618469,0.989273,-0.047364,-0.203616,-25.412972,-55.839976,16.298362
1785194399.3182,16:19:59.318,24,false,0.465042,-0.488098,0.403442,0.618652,0.98732,-0.047852,-0.198734,-25.324105,-55.848715,16.328403
1785194399.3496,16:19:59.349,25,false,0.464994,-0.487915,0.403625,0.618713,0.990249,-0.050782,-0.204105,-25.318894,-55.886488,16.28067
1785194399.3807,16:19:59.380,26,false,0.464846,-0.487854,0.40387,0.618713,0.991714,-0.065431,-0.194339,-25.29925,-56.010207,16.327433
1785194399.4119,16:19:59.411,27,false,0.464977,-0.487732,0.404053,0.618591,0.989273,-0.053223,-0.20557,-25.326432,-55.942107,16.36952
1785194399.443,16:19:59.443,28,false,0.464977,-0.487732,0.404053,0.618591,0.995132,-0.056153,-0.19678,-25.306034,-55.910726,16.437306
1785194399.4741,16:19:59.474,29,false,0.465069,-0.487671,0.404114,0.61853,0.990249,-0.040528,-0.204593,-25.287676,-55.852574,16.393636
1785194399.5053,16:19:59.505,30,false,0.464966,-0.487793,0.403992,0.618591,0.993668,-0.033204,-0.200687,-25.495461,-55.875007,16.219749
1785194399.5364,16:19:59.536,31,false,0.464821,-0.487854,0.403992,0.618652,0.996109,-0.033692,-0.188968,-25.473114,-55.805474,16.212789
1785194399.5676,16:19:59.567,0,false,0.464142,-0.487854,0.403931,0.619202,0.992691,-0.039551,-0.192386,-25.453002,-55.772802,16.281294
1785194399.5989,16:19:59.598,1,false,0.463746,-0.487793,0.403992,0.619507,0.994156,-0.052735,-0.195804,-25.39004,-55.758351,16.253226
1785194399.6302,16:19:59.630,2,false,0.463132,-0.487732,0.404114,0.619934,0.997086,-0.055177,-0.212406,-25.348327,-55.850022,16.21301
1785194399.6616,16:19:59.661,3,false,0.462161,-0.487671,0.404175,0.620667,0.997574,-0.059571,-0.204105,-25.32574,-55.87271,16.117001
1785194399.6929,16:19:59.692,4,false,0.461737,-0.48761,0.404358,0.620911,0.982437,-0.06006,-0.200198,-25.320365,-55.833314,16.224993
1785194399.7243,16:19:59.724,5,false,0.461362,-0.487732,0.404358,0.621094,0.99855,-0.058106,-0.19678,-25.315528,-55.723089,16.217508
1785194399.7556,16:19:59.755,6,false,0.461073,-0.487671,0.40448,0.621277,0.990249,-0.055177,-0.19678,-25.445759,-55.83324,16.270588
1785194399.7867,16:19:59.786,7,false,0.46065,-0.487732,0.404419,0.621582,1.000504,-0.064454,-0.198734,-25.398474,-55.842652,16.183775
1785194399.8179,16:19:59.817,8,false,0.459908,-0.487732,0.404419,0.622131,0.973648,-0.0542,-0.198734,-25.340965,-55.821216,16.165458
1785194399.849,16:19:59.849,9,false,0.459578,-0.487732,0.404419,0.622375,0.990738,-0.061524,-0.186526,-25.289206,-55.772016,16.119066
1785194399.8802,16:19:59.880,10,false,0.458602,-0.48761,0.404358,0.62323,0.990249,-0.058106,-0.203616,-25.242623,-55.877274,16.032451
1785194399.9113,16:19:59.911,11,false,0.458269,-0.487427,0.404297,0.623657,0.982925,-0.049805,-0.208011,-25.230606,-55.852376,16.104036
1785194399.9424,16:19:59.942,12,false,0.457698,-0.487183,0.404297,0.624268,0.995132,-0.065431,-0.20264,-25.264652,-55.949598,16.018924
1785194399.9738,16:19:59.973,13,false,0.457355,-0.486938,0.404602,0.624512,0.988785,-0.068849,-0.208499,-25.295294,-56.037098,16.12177
1785194400.0051,16:20:00.005,14,false,0.456981,-0.486694,0.404846,0.624817,0.992691,-0.064454,-0.19971,-25.248102,-55.996217,16.109654
1785194400.0365,16:20:00.036,15,false,0.456378,-0.486633,0.404846,0.625305,0.993668,-0.061036,-0.19678,-25.235537,-56.079055,16.09875
1785194400.0678,16:20:00.067,16,false,0.456098,-0.486633,0.404785,0.625549,0.996597,-0.067384,-0.198245,-25.239183,-56.168563,16.02912
1785194400.0991,16:20:00.099,17,false,0.455612,-0.486511,0.404724,0.626038,0.983902,-0.061036,-0.186526,-25.137787,-56.174351,15.936546
1785194400.1303,16:20:00.130,18,false,0.455127,-0.486511,0.404419,0.626587,0.988296,-0.059571,-0.196292,-25.1213,-56.224422,15.927999
1785194400.1614,16:20:00.161,19,false,0.454989,-0.48645,0.404175,0.626892,1.003433,-0.070802,-0.206546,-25.18123,-56.224624,15.875445
1785194400.1926,16:20:00.192,20,false,0.454644,-0.486267,0.403931,0.627441,0.986343,-0.061036,-0.210452,-25.160399,-56.299575,15.902915
1785194400.2237,16:20:00.223,21,false,0.454095,-0.486145,0.403748,0.628052,0.988296,-0.066896,-0.209964,-25.156604,-56.277308,15.912685
1785194400.2548,16:20:00.254,22,false,0.453398,-0.486023,0.403442,0.628845,0.989273,-0.063478,-0.213382,-25.153189,-56.332037,15.8168
1785194400.286,16:20:00.286,23,false,0.45211,-0.485901,0.40332,0.629944,0.993179,-0.059571,-0.201663,-25.120208,-56.381293,15.835181
1785194400.3173,16:20:00.317,24,false,0.451176,-0.485718,0.403442,0.630676,0.994644,-0.069337,-0.201175,-25.105479,-56.440578,15.866678
1785194400.3487,16:20:00.348,25,false,0.449413,-0.485535,0.403625,0.631958,0.996109,-0.069825,-0.203616,-25.002499,-56.508887,15.909979
1785194400.38,16:20:00.380,26,false,0.448681,-0.485474,0.403748,0.632446,0.989761,-0.070314,-0.204105,-24.850003,-56.480643,15.933996
1785194400.4113,16:20:00.411,27,false,0.446648,-0.485474,0.403992,0.633728,0.980484,-0.061036,-0.207034,-24.922109,-56.544946,15.970565
1785194400.4427,16:20:00.442,28,false,0.445138,-0.485535,0.404053,0.634705,0.996109,-0.069337,-0.201663,-24.837467,-56.677588,15.8988
1785194400.474,16:20:00.474,29,false,0.442753,-0.485718,0.404053,0.63623,0.98146,-0.09424,-0.206058,-24.880919,-56.707243,15.849166
1785194400.5054,16:20:00.505,30,false,0.441157,-0.485962,0.40387,0.637268,0.991714,-0.088869,-0.194827,-24.920027,-56.659163,15.74468
1785194400.5365,16:20:00.536,31,false,0.439453,-0.486267,0.403625,0.638367,0.986343,-0.089357,-0.209964,-24.850546,-56.720568,15.710457
1785194400.5676,16:20:00.567,0,false,0.437257,-0.486755,0.403198,0.639771,0.992203,-0.099123,-0.203128,-24.743152,-56.820694,15.679657
1785194400.5988,16:20:00.598,1,false,0.435787,-0.487244,0.402649,0.640747,0.980484,-0.100587,-0.201175,-24.61659,-56.806131,15.651937
1785194400.6299,16:20:00.629,2,false,0.43449,-0.48761,0.402344,0.641541,0.992203,-0.09131,-0.213382,-24.68213,-56.8977,15.626989
1785194400.6611,16:20:00.661,3,false,0.432962,-0.487915,0.402161,0.642456,0.98439,-0.103029,-0.205081,-24.666347,-56.980113,15.604536
1785194400.6922,16:20:00.692,4,false,0.431962,-0.488098,0.402039,0.643066,0.976577,-0.104982,-0.200198,-24.75682,-56.844931,15.509559
1785194400.7235,16:20:00.723,5,false,0.430969,-0.488281,0.4021,0.643555,0.983413,-0.107912,-0.199222,-24.733568,-56.857851,15.468941
1785194400.7549,16:20:00.754,6,false,0.430684,-0.488342,0.402039,0.643738,0.989761,-0.106935,-0.195804,-24.832272,-56.944249,15.402477
1785194400.7862,16:20:00.786,7,false,0.430422,-0.488281,0.4021,0.643921,0.984878,-0.097169,-0.197757,-24.592121,-57.007053,15.387521
1785194400.8176,16:20:00.817,8,false,0.430585,-0.488037,0.402222,0.643921,0.991226,-0.101564,-0.21387,-24.570385,-56.943946,15.478738
1785194400.8489,16:20:00.848,9,false,0.430481,-0.488098,0.402161,0.643982,0.979995,-0.091798,-0.201175,-24.535869,-56.946965,15.545879
1785194400.8802,16:20:00.880,10,false,0.430757,-0.487915,0.402283,0.64386,1.000504,-0.092775,-0.20557,-24.504804,-56.97959,15.606306
1785194400.9114,16:20:00.911,11,false,0.430757,-0.487915,0.402283,0.64386,0.999527,-0.099123,-0.200687,-24.626384,-56.904275,15.481244
1785194400.9425,16:20:00.942,12,false,0.430598,-0.487915,0.402161,0.644043,0.985367,-0.10547,-0.20557,-24.571314,-56.851446,15.458412
1785194400.9737,16:20:00.973,13,false,0.430346,-0.487976,0.402161,0.644165,0.980972,-0.092287,-0.202152,-24.626428,-56.848761,15.437862
1785194401.0048,16:20:01.004,14,false,0.430484,-0.487915,0.402283,0.644043,0.987808,-0.091798,-0.19678,-24.571354,-56.876252,15.464229
1785194401.0359,16:20:01.035,15,false,0.430737,-0.487732,0.402527,0.64386,0.985855,-0.113283,-0.201175,-24.521787,-57.050533,15.622544
1785194401.0671,16:20:01.067,16,false,0.430783,-0.487671,0.402649,0.643799,0.990738,-0.106447,-0.203128,-24.671577,-57.117662,15.495859
1785194401.0984,16:20:01.098,17,false,0.430805,-0.487732,0.402649,0.643738,0.98732,-0.09131,-0.20557,-24.761526,-57.163125,15.441657
1785194401.1298,16:20:01.129,18,false,0.43071,-0.488098,0.402405,0.643677,0.996597,-0.08838,-0.192874,-24.782665,-57.114319,15.437737
1785194401.1611,16:20:01.161,19,false,0.430752,-0.488342,0.402161,0.643616,0.992691,-0.086915,-0.19971,-24.80169,-57.130208,15.404301
1785194401.1924,16:20:01.192,20,false,0.431167,-0.488831,0.401611,0.643311,0.98732,-0.09424,-0.208011,-24.758997,-57.024878,15.463932
1785194401.2238,16:20:01.223,21,false,0.432144,-0.489441,0.400696,0.642761,0.985855,-0.106935,-0.181643,-24.70562,-56.945034,15.532554
1785194401.2549,16:20:01.254,22,false,0.435531,-0.491333,0.397339,0.641113,0.966323,-0.104494,-0.197757,-24.478134,-56.932991,15.609267
1785194401.2861,16:20:01.286,23,false,0.437065,-0.492188,0.395874,0.64032,1.006363,-0.095216,-0.197757,-24.542566,-56.87729,15.648401
1785194401.3172,16:20:01.317,24,false,0.441511,-0.4953,0.390869,0.637939,0.992203,-0.072755,-0.206546,-24.510832,-56.632759,15.51913
1785194401.3483,16:20:01.348,25,false,0.444281,-0.497437,0.38739,0.636475,0.995132,-0.052735,-0.204593,-24.616855,-56.502405,15.53737
1785194401.3795,16:20:01.379,26,false,0.447717,-0.500061,0.382935,0.634705,1.001968,-0.025391,-0.206058,-24.502923,-56.400039,15.493971
1785194401.4106,16:20:01.410,27,false,0.448918,-0.501465,0.380493,0.634216,0.999039,-0.02002,-0.213382,-24.57983,-56.233141,15.350235
1785194401.4418,16:20:01.441,28,false,0.449993,-0.502441,0.37854,0.63385,0.98732,-0.019043,-0.214359,-24.499508,-56.082933,15.250781
1785194401.4731,16:20:01.473,29,false,0.450505,-0.503113,0.376831,0.633972,1.003922,-0.008301,-0.208988,-24.472079,-55.947746,15.056594
1785194401.5044,16:20:01.504,30,false,0.450399,-0.503235,0.376282,0.634277,0.993179,-0.027832,-0.207523,-24.611886,-55.736354,14.97155
1785194401.5358,16:20:01.535,31,false,0.450175,-0.503296,0.37616,0.63446,0.989761,-0.026856,-0.228031,-24.57322,-55.486286,15.014641
1785194401.5671,16:20:01.567,0,false,0.450122,-0.503357,0.376038,0.634521,0.995621,-0.027344,-0.222171,-24.553374,-55.425718,14.933791
1785194401.5983,16:20:01.598,1,false,0.449917,-0.503418,0.376099,0.634583,0.994156,-0.020996,-0.210452,-24.475697,-55.251575,14.875981
1785194401.6296,16:20:01.629,2,false,0.449885,-0.503418,0.376343,0.63446,0.987808,-0.021485,-0.204105,-24.510465,-55.214477,14.913675
1785194401.6607,16:20:01.660,3,false,0.449973,-0.503479,0.376465,0.634277,0.997086,-0.020508,-0.214359,-24.571664,-55.001643,14.917691
1785194401.6919,16:20:01.691,4,false,0.449853,-0.50354,0.376526,0.634277,0.983413,-0.03418,-0.223148,-24.746374,-54.989539,14.846537
1785194401.723,16:20:01.723,5,false,0.450008,-0.503479,0.376526,0.634216,0.994644,-0.015137,-0.217288,-24.783982,-54.978645,14.887175
1785194401.7542,16:20:01.754,6,false,0.449837,-0.503418,0.376709,0.634277,0.986343,-0.02002,-0.20557,-24.832783,-55.028655,14.983565
1785194401.7853,16:20:01.785,7,false,0.449562,-0.502869,0.377563,0.634399,0.992691,-0.018067,-0.203616,-24.846796,-54.849357,14.920777
1785194401.8164,16:20:01.816,8,false,0.449234,-0.502625,0.377869,0.634644,0.982925,-0.016602,-0.213382,-24.784639,-54.882389,14.939038
1785194401.8478,16:20:01.847,9,false,0.448018,-0.501404,0.3797,0.635376,1.002457,-0.029297,-0.208011,-24.728697,-54.942025,15.060149
1785194401.8791,16:20:01.879,10,false,0.446956,-0.5,0.381775,0.635986,1.005386,-0.027344,-0.203128,-24.812934,-55.010652,15.049518
1785194401.9105,16:20:01.910,11,false,0.443531,-0.49762,0.385803,0.637817,0.984878,-0.036622,-0.218753,-24.843886,-54.967739,14.935273
1785194401.9418,16:20:01.941,12,false,0.441231,-0.495544,0.388977,0.639099,0.983413,-0.0542,-0.195804,-24.931558,-55.01884,14.847407
1785194401.9732,16:20:01.973,13,false,0.439499,-0.493347,0.392212,0.640015,0.979995,-0.048341,-0.211917,-24.92074,-55.124647,14.887958
1785194402.0045,16:20:02.004,14,false,0.436426,-0.490295,0.396851,0.641602,0.987808,-0.089357,-0.209476,-24.985773,-55.294642,14.864639
1785194402.0356,16:20:02.035,15,false,0.434009,-0.488037,0.399902,0.643066,0.968276,-0.067872,-0.203128,-25.044303,-55.372868,14.873559
1785194402.0668,16:20:02.066,16,false,0.431562,-0.48584,0.402466,0.644775,0.978531,-0.104005,-0.208499,-24.992302,-55.428318,14.97131
1785194402.0981,16:20:02.098,17,false,0.429491,-0.483337,0.405334,0.64624,0.985367,-0.132326,-0.224125,-24.915594,-55.5829,15.059287
1785194402.1295,16:20:02.129,18,false,0.428348,-0.481873,0.406921,0.647095,0.953628,-0.149905,-0.211917,-24.726927,-55.796793,15.138465
1785194402.1606,16:20:02.160,19,false,0.427001,-0.480835,0.408203,0.647949,0.986831,-0.143069,-0.211917,-24.661802,-56.00425,15.14991
1785194402.1917,16:20:02.191,20,false,0.42673,-0.480652,0.408508,0.648071,0.969741,-0.135744,-0.208499,-24.558329,-56.235823,15.23498
1785194402.2231,16:20:02.223,21,false,0.426155,-0.48053,0.409058,0.648193,0.979019,-0.133791,-0.202152,-24.510065,-56.504053,15.341451
1785194402.2544,16:20:02.254,22,false,0.426696,-0.4823,0.407471,0.647522,0.98439,-0.121096,-0.187503,-24.406811,-56.58097,15.347552
1785194402.2858,16:20:02.285,23,false,0.427546,-0.483887,0.405762,0.646851,0.980484,-0.117189,-0.194339,-24.448468,-56.71001,15.38295
1785194402.3171,16:20:02.317,24,false,0.429158,-0.486267,0.402954,0.645752,1.002457,-0.106447,-0.195315,-24.381282,-56.76633,15.429762
1785194402.3484,16:20:02.348,25,false,0.42984,-0.486938,0.4021,0.645325,0.988296,-0.112306,-0.20264,-24.320814,-56.891788,15.546662
1785194402.3796,16:20:02.379,26,false,0.431538,-0.488464,0.399597,0.644592,0.985855,-0.104982,-0.20557,-24.341163,-56.900022,15.502334
1785194402.4107,16:20:02.410,27,false,0.43279,-0.489563,0.397583,0.644165,0.979507,-0.106935,-0.203128,-24.404338,-56.937341,15.492346
1785194402.4419,16:20:02.441,28,false,0.435599,-0.491272,0.39447,0.642883,0.993668,-0.096193,-0.208988,-24.416334,-56.761575,15.528219
1785194402.473,16:20:02.473,29,false,0.437591,-0.492554,0.392151,0.641968,0.972671,-0.069825,-0.214359,-24.546762,-56.8576,15.485735
1785194402.5041,16:20:02.504,30,false,0.439694,-0.493713,0.389832,0.641052,0.979995,-0.054688,-0.224613,-24.499654,-56.884208,15.507315
1785194402.5353,16:20:02.535,31,false,0.442589,-0.495056,0.387451,0.639465,1.00148,-0.034668,-0.222171,-24.561934,-56.683847,15.451967
1785194402.5664,16:20:02.566,0,false,0.444136,-0.495728,0.38623,0.638611,0.989273,-0.042969,-0.215824,-24.752571,-56.533429,15.491878
1785194402.5978,16:20:02.597,1,false,0.445343,-0.496094,0.385681,0.637817,0.995132,-0.03125,-0.224613,-24.654974,-56.398054,15.378259
1785194402.6291,16:20:02.629,2,false,0.446247,-0.496521,0.385498,0.636963,0.996597,-0.033692,-0.206546,-24.761538,-56.201447,15.276002
1785194402.6604,16:20:02.660,3,false,0.446264,-0.496643,0.385925,0.636597,0.988296,-0.027832,-0.21973,-24.872398,-56.069362,15.37837
1785194402.6918,16:20:02.691,4,false,0.445674,-0.496033,0.38739,0.636597,0.985367,-0.041016,-0.212894,-25.046942,-56.100024,15.30601
1785194402.7231,16:20:02.723,5,false,0.445318,-0.495605,0.388245,0.636658,0.963394,-0.061524,-0.202152,-25.174124,-56.097712,15.37547
1785194402.7545,16:20:02.754,6,false,0.443474,-0.494324,0.390381,0.637634,0.973648,-0.053223,-0.189944,-25.094188,-56.05077,15.303399
1785194402.7856,16:20:02.785,7,false,0.442486,-0.493225,0.39209,0.638123,0.994156,-0.069825,-0.210452,-24.992338,-55.978614,15.477797
1785194402.8167,16:20:02.816,8,false,0.440798,-0.491455,0.394714,0.639038,0.990249,-0.067872,-0.202152,-25.065165,-55.97349,15.545032
1785194402.8479,16:20:02.847,9,false,0.4401,-0.490295,0.39624,0.639465,0.993668,-0.083986,-0.208988,-25.070893,-55.983831,15.620498
1785194402.879,16:20:02.879,10,false,0.439697,-0.48938,0.397522,0.639648,0.985855,-0.088869,-0.199222,-25.091003,-56.052954,15.643555
1785194402.9102,16:20:02.910,11,false,0.439623,-0.488342,0.398682,0.639771,0.986831,-0.086427,-0.206058,-25.153964,-56.115165,15.694215
