Timestamp,Local time,Counter,Interpolated,Accelerometer X,Accelerometer Y,Accelerometer Z,Magnetometer X,Magnetometer Y,Magnetometer Z,Quaternion 0,Quaternion 1,Quaternion 2,Quaternion 3
1784589597.4233,16:19:57.423,26,false,0.661611,-0.417175,0.462708,0.417297,0.995621,0.183108,-0.239261,-23.760984,-35.189914,10.618176
1784589597.4546,16:19:57.454,27,false,0.662917,-0.416321,0.462158,0.416687,0.986343,0.187015,-0.237797,-23.882177,-35.274798,10.603128
1784589597.4857,16:19:57.485,28,false,0.663521,-0.416321,0.461731,0.416199,0.986343,0.176761,-0.240726,-23.931436,-35.366148,10.604538
1784589597.5169,16:19:57.516,29,false,0.664704,-0.416565,0.461182,0.414673,0.972671,0.174807,-0.247074,-23.915953,-35.35864,10.560945
1784589597.548,16:19:57.548,30,false,0.666629,-0.41626,0.460266,0.412903,0.938979,0.183108,-0.236332,-23.976788,-35.351882,10.47685
1784589597.5792,16:19:57.579,31,false,0.667306,-0.416199,0.459778,0.412415,0.953628,0.189456,-0.237797,-23.732462,-35.42057,10.401165
1784589597.6103,16:19:57.610,0,false,0.669048,-0.416199,0.458008,0.41156,0.958022,0.191409,-0.229984,-23.647154,-35.317897,10.288187
1784589597.6414,16:19:57.641,1,false,0.670047,-0.415955,0.457153,0.411133,0.962905,0.202152,-0.229984,-23.58533,-35.240444,10.380906
1784589597.6726,16:19:57.672,2,false,0.67146,-0.415222,0.455688,0.411194,0.94435,0.196292,-0.239261,-23.454919,-35.170737,10.284907
1784589597.7039,16:19:57.703,3,false,0.672747,-0.413757,0.454956,0.411377,0.946792,0.167483,-0.242679,-23.621673,-35.197724,10.318139
1784589597.7352,16:19:57.735,4,false,0.674282,-0.411499,0.454346,0.411804,0.96144,0.164065,-0.261234,-23.696982,-35.117335,10.213464
1784589597.7666,16:19:57.766,5,false,0.67641,-0.407776,0.45343,0.413025,0.975113,0.169924,-0.282231,-23.600267,-35.134708,10.134209
1784589597.7979,16:19:57.797,6,false,0.678191,-0.404663,0.453613,0.412964,0.98732,0.170901,-0.283696,-23.528178,-35.030713,10.077834
1784589597.8293,16:19:57.829,7,false,0.67938,-0.402039,0.454224,0.412903,0.986831,0.176761,-0.277348,-23.478252,-35.026841,9.967281
1784589597.8606,16:19:57.860,8,false,0.680138,-0.398804,0.455994,0.412842,0.961929,0.177249,-0.266606,-23.448272,-35.068217,9.897691
1784589597.8917,16:19:57.891,9,false,0.680038,-0.397461,0.457092,0.413086,0.973648,0.181155,-0.271977,-23.256798,-35.165271,9.850014
1784589597.9229,16:19:57.922,10,false,0.679086,-0.396851,0.458374,0.413818,0.980484,0.187991,-0.26807,-23.204102,-35.177851,9.702428
1784589597.954,16:19:57.954,11,false,0.678459,-0.396912,0.458862,0.414246,0.978531,0.17969,-0.242679,-23.022091,-35.144311,9.689231
1784589597.9852,16:19:57.985,12,false,0.676173,-0.397522,0.460327,0.415771,0.963394,0.171389,-0.244144,-22.992866,-35.233755,9.737169
1784589598.0163,16:19:58.016,13,false,0.674713,-0.397888,0.460938,0.417114,0.966812,0.156741,-0.241703,-23.011425,-35.224533,9.69059
1784589598.0474,16:19:58.047,14,false,0.673114,-0.397766,0.461609,0.419067,0.97023,0.145022,-0.244633,-23.117851,-35.36577,9.603808
1784589598.0788,16:19:58.078,15,false,0.672248,-0.3974,0.461853,0.420532,0.979995,0.144533,-0.257816,-23.153819,-35.3583,9.615427
1784589598.1101,16:19:58.110,16,false,0.671458,-0.396912,0.461975,0.422119,0.979995,0.138186,-0.245121,-23.126375,-35.261854,9.431484
1784589598.1415,16:19:58.141,17,false,0.67093,-0.396118,0.461914,0.423767,0.98732,0.140627,-0.255375,-23.101675,-35.279729,9.370612
1784589598.1728,16:19:58.172,18,false,0.670948,-0.39563,0.461914,0.424194,0.978531,0.142092,-0.26807,-23.079445,-35.191139,9.315828
1784589598.2041,16:19:58.204,19,false,0.671145,-0.395325,0.461609,0.4245,0.963394,0.130373,-0.270024,-23.119254,-35.275901,9.326337
1784589598.2355,16:19:58.235,20,false,0.671284,-0.395386,0.46051,0.425415,0.959487,0.14258,-0.273442,-23.244805,-35.232556,9.201211
1784589598.2668,16:19:58.266,21,false,0.67142,-0.395569,0.459534,0.426086,0.971206,0.153811,-0.276371,-23.058724,-35.447761,9.238135
1784589598.298,16:19:58.298,22,false,0.671773,-0.395813,0.458069,0.42688,0.964858,0.144533,-0.277836,-22.906204,-35.611537,9.211552
1784589598.3292,16:19:58.329,23,false,0.672041,-0.395691,0.457153,0.427551,0.958022,0.146975,-0.281743,-22.918475,-35.504721,9.187628
1784589598.3603,16:19:58.360,24,false,0.672155,-0.39563,0.456238,0.428406,0.982925,0.147463,-0.296391,-23.064104,-35.647848,9.076372
1784589598.3915,16:19:58.391,25,false,0.67249,-0.395264,0.4552,0.429321,0.9673,0.135744,-0.288579,-22.911047,-35.686939,9.065966
1784589598.4228,16:19:58.422,26,false,0.672393,-0.395264,0.454651,0.430054,0.96437,0.149905,-0.296391,-22.90788,-35.557628,9.041646
1784589598.4541,16:19:58.454,27,false,0.672016,-0.395264,0.454285,0.43103,0.972183,0.147951,-0.300298,-22.90503,-35.590788,8.885173
1784589598.4855,16:19:58.485,28,false,0.671716,-0.395447,0.454163,0.431458,0.975113,0.143069,-0.299809,-22.737972,-35.456139,9.013517
1784589598.5168,16:19:58.516,29,false,0.670836,-0.395569,0.454834,0.432007,0.974624,0.143557,-0.292485,-22.752113,-35.39477,8.994442
1784589598.5482,16:19:58.548,30,false,0.669671,-0.396118,0.455261,0.432861,0.979019,0.140139,-0.282231,-22.779793,-35.459169,8.932413
1784589598.5795,16:19:58.579,31,false,0.6682,-0.397034,0.455811,0.433716,0.98146,0.148928,-0.279301,-22.670121,-35.502174,8.891541
1784589598.6108,16:19:58.610,0,false,0.667032,-0.397766,0.45636,0.434265,0.966323,0.12549,-0.274418,-22.810677,-35.570786,8.884663
1784589598.642,16:19:58.642,1,false,0.665929,-0.398376,0.457031,0.434692,0.972671,0.146487,-0.274907,-22.802593,-35.438137,8.86352
1784589598.6731,16:19:58.673,2,false,0.664598,-0.399353,0.457825,0.434998,0.966323,0.152346,-0.268559,-22.750456,-35.543061,8.91926
1784589598.7043,16:19:58.704,3,false,0.663796,-0.40033,0.458252,0.434875,0.966812,0.137697,-0.263188,-22.718487,-35.532815,8.90961
1784589598.7354,16:19:58.735,4,false,0.663024,-0.401306,0.458862,0.434509,0.982437,0.160159,-0.265629,-22.734576,-35.389009,8.975695
1784589598.7665,16:19:58.766,5,false,0.661358,-0.402771,0.460327,0.434143,0.983413,0.148928,-0.240238,-22.539702,-35.349307,8.975356
1784589598.7977,16:19:58.797,6,false,0.660057,-0.403625,0.461731,0.433838,0.973648,0.137209,-0.257328,-22.633485,-35.388345,9.229266
1784589598.829,16:19:58.829,7,false,0.658674,-0.404358,0.463806,0.433044,0.973648,0.143557,-0.254887,-22.658074,-35.393571,9.113847
1784589598.8603,16:19:58.860,8,false,0.658254,-0.404541,0.464355,0.432922,0.961929,0.120119,-0.243168,-22.769928,-35.38332,9.249231
1784589598.8917,16:19:58.891,9,false,0.658251,-0.405823,0.465454,0.430542,0.962905,0.107912,-0.250004,-22.855642,-35.359141,9.430892
1784589598.923,16:19:58.923,10,false,0.659547,-0.408203,0.464966,0.426819,0.952163,0.091798,-0.252934,-22.872969,-35.172887,9.459803
1784589598.9544,16:19:58.954,11,false,0.663726,-0.414124,0.461426,0.418396,0.941421,0.097169,-0.230961,-22.828749,-35.065074,9.500776
1784589598.9857,16:19:58.985,12,false,0.66768,-0.418091,0.458008,0.411865,0.959487,0.143069,-0.218265,-22.893627,-34.982997,9.747006
1784589599.017,16:19:59.017,13,false,0.671308,-0.420776,0.454651,0.406921,1.041032,0.191897,-0.25098,-22.952017,-34.80445,9.744305
1784589599.0482,16:19:59.048,14,false,0.672833,-0.418213,0.455688,0.405884,1.050797,0.252445,-0.267582,-22.959707,-34.524127,9.667105
1784589599.0793,16:19:59.079,15,false,0.670667,-0.411743,0.461243,0.40979,0.981949,0.266117,-0.25684,-23.026443,-34.331652,9.73221
1784589599.1105,16:19:59.110,16,false,0.667024,-0.400818,0.469727,0.41687,0.846693,0.234379,-0.224613,-23.161275,-34.188332,9.820711
1784589599.1416,16:19:59.141,17,false,0.667432,-0.397949,0.469849,0.418823,0.82472,0.151369,-0.206058,-23.162993,-34.283651,9.795686
1784589599.1727,16:19:59.172,18,false,0.670958,-0.400085,0.464722,0.41687,0.912612,0.097169,-0.211429,-23.164539,-34.264762,9.922702
1784589599.2041,16:19:59.204,19,false,0.675842,-0.405762,0.455688,0.413452,1.092302,0.13135,-0.28809,-23.076208,-34.292623,9.872524
1784589599.2354,16:19:59.235,20,false,0.676351,-0.406982,0.453674,0.413635,1.077653,0.168948,-0.313481,-23.056525,-34.153206,9.946994
1784589599.2668,16:19:59.266,21,false,0.675424,-0.405518,0.455139,0.414978,0.977554,0.195315,-0.303227,-23.068718,-33.997823,9.90934
1784589599.2981,16:19:59.298,22,false,0.675086,-0.401672,0.458923,0.4151,0.883803,0.184573,-0.276371,-23.03483,-33.872932,9.935268
1784589599.3294,16:19:59.329,23,false,0.677003,-0.400513,0.459534,0.412415,0.908217,0.166995,-0.252445,-22.869746,-33.850253,9.928694
1784589599.3608,16:19:59.360,24,false,0.678837,-0.401245,0.460327,0.407776,1.045914,0.166995,-0.265141,-23.020248,-33.874703,9.892871
1784589599.3921,16:19:59.392,25,false,0.678611,-0.401489,0.461365,0.406738,0.994644,0.20557,-0.264652,-23.065976,-33.687355,9.845676
1784589599.4234,16:19:59.423,26,false,0.677352,-0.402466,0.464233,0.404602,0.909194,0.188479,-0.239261,-22.957593,-33.66828,9.8032
1784589599.4546,16:19:59.454,27,false,0.677379,-0.403381,0.464355,0.403503,0.903822,0.189944,-0.238285,-22.830141,-33.785697,9.779926
1784589599.4857,16:19:59.485,28,false,0.677558,-0.40448,0.463562,0.403015,0.978042,0.195804,-0.25684,-22.745341,-33.786696,9.848702
1784589599.5169,16:19:59.516,29,false,0.67721,-0.404297,0.463806,0.403503,0.979019,0.181643,-0.249516,-22.669022,-33.608148,9.835832
1784589599.548,16:19:59.548,30,false,0.676819,-0.403931,0.464111,0.404175,0.973159,0.18555,-0.25977,-22.705011,-33.596994,9.928925
1784589599.5793,16:19:59.579,31,false,0.676046,-0.403931,0.464172,0.405396,0.95314,0.175784,-0.25391,-22.88694,-33.557047,9.878125
1784589599.6107,16:19:59.610,0,false,0.675973,-0.40387,0.464172,0.405579,0.959976,0.175784,-0.25684,-23.035722,-33.536049,9.877266
1784589599.642,16:19:59.642,1,false,0.67568,-0.404053,0.464172,0.405884,0.980972,0.157717,-0.248051,-23.079903,-33.606874,9.936308
1784589599.6734,16:19:59.673,2,false,0.675654,-0.404053,0.464478,0.405579,0.962417,0.158206,-0.266117,-23.089758,-33.506124,9.899723
1784589599.7047,16:19:59.704,3,false,0.676144,-0.403809,0.464722,0.404724,0.959976,0.1626,-0.241215,-23.083674,-33.325726,9.926612
1784589599.7358,16:19:59.735,4,false,0.677349,-0.403076,0.465088,0.403015,0.978042,0.167971,-0.265629,-23.078198,-33.163368,9.950812
1784589599.767,16:19:59.767,5,false,0.678529,-0.402161,0.465637,0.401306,0.978531,0.163577,-0.243168,-23.07327,-33.166784,9.897823
1784589599.7981,16:19:59.798,6,false,0.679798,-0.401062,0.466309,0.399475,0.969253,0.194339,-0.259281,-23.248281,-32.930597,10.119302
1784589599.8293,16:19:59.829,7,false,0.680853,-0.399658,0.46759,0.397583,0.971206,0.189944,-0.249516,-23.435698,-32.972244,10.139187
1784589599.8604,16:19:59.860,8,false,0.681304,-0.39856,0.46875,0.396545,0.969741,0.184085,-0.263188,-23.39502,-32.994772,10.142129
1784589599.8915,16:19:59.891,9,false,0.681556,-0.397278,0.470398,0.395447,0.9673,0.194339,-0.245121,-23.298594,-33.059909,10.189639
1784589599.9229,16:19:59.922,10,false,0.681567,-0.396912,0.470947,0.395142,0.97023,0.175296,-0.246098,-23.256672,-33.163394,10.277259
1784589599.9542,16:19:59.954,11,false,0.681897,-0.395996,0.472107,0.394104,0.962905,0.16553,-0.242679,-23.233897,-33.166808,10.266395
1784589599.9855,16:19:59.985,12,false,0.682124,-0.395691,0.472595,0.393433,0.976089,0.172366,-0.249027,-23.318076,-33.065203,10.301478
1784589600.0169,16:20:00.016,13,false,0.682405,-0.395264,0.473511,0.392273,0.979507,0.181155,-0.240726,-23.348975,-33.01862,10.303145
1784589600.0482,16:20:00.048,14,false,0.682422,-0.394714,0.474548,0.391541,0.975113,0.157717,-0.23389,-23.302015,-33.051465,10.379415
1784589600.0796,16:20:00.079,15,false,0.682431,-0.394043,0.475647,0.390869,0.978531,0.16553,-0.240726,-23.289659,-33.185702,10.373289
1784589600.1109,16:20:00.110,16,false,0.682432,-0.393311,0.477051,0.389893,0.974624,0.157229,-0.237797,-23.308446,-33.216792,10.412636
1784589600.1422,16:20:00.142,17,false,0.682494,-0.392761,0.47821,0.388916,0.964858,0.151369,-0.232425,-23.415078,-33.259727,10.328418
1784589600.1734,16:20:00.173,18,false,0.682518,-0.392029,0.47937,0.388184,0.9673,0.171389,-0.228519,-23.391415,-33.2236,10.28253
1784589600.2045,16:20:00.204,19,false,0.682769,-0.390808,0.480896,0.387085,0.968276,0.169436,-0.234379,-23.400027,-33.2509,10.375815
1784589600.2357,16:20:00.235,20,false,0.682904,-0.390259,0.481689,0.386414,0.966323,0.164553,-0.225589,-23.288147,-33.200701,10.355095
1784589600.2668,16:20:00.266,21,false,0.682399,-0.389648,0.482849,0.386475,0.988296,0.178225,-0.244144,-23.24727,-33.320015,10.306539
1784589600.2979,16:20:00.297,22,false,0.682115,-0.389343,0.483398,0.386597,0.992203,0.166995,-0.21973,-23.225434,-33.307766,10.292746
1784589600.3291,16:20:00.329,23,false,0.680833,-0.387939,0.48584,0.387207,0.982437,0.166018,-0.219242,-23.220736,-33.311696,10.325194
1784589600.3604,16:20:00.360,24,false,0.679645,-0.387085,0.487549,0.388,0.974624,0.158694,-0.212894,-23.336139,-33.345141,10.249721
1784589600.3918,16:20:00.391,25,false,0.678373,-0.385376,0.489502,0.389465,0.969253,0.137209,-0.223148,-23.425047,-33.584595,10.301425
1784589600.4231,16:20:00.423,26,false,0.67824,-0.384277,0.490112,0.390015,0.962417,0.14258,-0.222171,-23.460203,-33.680473,10.318052
1784589600.4544,16:20:00.454,27,false,0.678595,-0.383728,0.490051,0.390015,0.956558,0.146975,-0.214359,-23.432028,-33.751809,10.347969
1784589600.4858,16:20:00.485,28,false,0.681714,-0.386475,0.486694,0.386047,0.937514,0.136233,-0.202152,-23.466486,-33.905735,10.43471
1784589600.5171,16:20:00.517,29,false,0.685352,-0.390991,0.481995,0.38092,0.981949,0.126955,-0.219242,-23.527406,-33.924637,10.557639
1784589600.5485,16:20:00.548,30,false,0.689794,-0.397644,0.475525,0.374084,1.039567,0.181643,-0.232425,-23.537373,-33.822018,10.563598
1784589600.5796,16:20:00.579,31,false,0.690145,-0.399536,0.474243,0.373047,1.067399,0.226078,-0.267582,-23.426712,-33.774523,10.539053
1784589600.6107,16:20:00.610,0,false,0.687702,-0.398132,0.47699,0.375549,1.050309,0.220218,-0.274418,-23.491609,-33.731778,10.546871
1784589600.6419,16:20:00.641,1,false,0.682915,-0.391907,0.484558,0.381104,0.914565,0.218265,-0.228031,-23.490201,-33.70826,10.464183
1784589600.673,16:20:00.673,2,false,0.680522,-0.388245,0.488831,0.383667,0.875013,0.217777,-0.204105,-23.563703,-33.866541,10.389765
1784589600.7043,16:20:00.704,3,false,0.680296,-0.386963,0.490112,0.383728,0.897963,0.148928,-0.186526,-23.76444,-33.964132,10.591957
1784589600.7357,16:20:00.735,4,false,0.682436,-0.389038,0.487488,0.381165,1.007828,0.125978,-0.208988,-23.750703,-34.051964,10.594484
1784589600.767,16:20:00.767,5,false,0.683607,-0.390015,0.485779,0.380249,1.024918,0.125978,-0.208499,-23.693478,-34.056243,10.776204
1784589600.7984,16:20:00.798,6,false,0.684634,-0.389221,0.48468,0.380615,1.00734,0.148928,-0.239261,-23.597114,-34.149818,10.775261
1784589600.8297,16:20:00.829,7,false,0.684898,-0.388611,0.484558,0.38092,0.991226,0.161624,-0.250004,-23.585156,-34.114404,10.744503
1784589600.861,16:20:00.861,8,false,0.685833,-0.38623,0.484802,0.381348,0.995132,0.148928,-0.23682,-23.589347,-34.142347,10.836453
1784589600.8922,16:20:00.892,9,false,0.68604,-0.385254,0.485046,0.381653,0.994156,0.156252,-0.248051,-23.667889,-34.212358,10.81453
1784589600.9233,16:20:00.923,10,false,0.686104,-0.384705,0.485535,0.38147,0.988785,0.161135,-0.245121,-23.603991,-34.245459,10.779846
1784589600.9547,16:20:00.954,11,false,0.686066,-0.384949,0.485779,0.380981,0.96437,0.153323,-0.226078,-23.621253,-34.320112,10.718723
1784589600.9858,16:20:00.985,12,false,0.686192,-0.385498,0.485596,0.380432,0.959487,0.158694,-0.231449,-23.711558,-34.267669,10.723527
1784589601.0169,16:20:01.016,13,false,0.686766,-0.385986,0.485352,0.379211,0.9673,0.170901,-0.232425,-23.777878,-34.355055,10.682989
1784589601.0481,16:20:01.048,14,false,0.686962,-0.386047,0.485168,0.379028,0.958999,0.180667,-0.232425,-23.777751,-34.373887,10.691367
1784589601.0792,16:20:01.079,15,false,0.687144,-0.38562,0.485107,0.379211,0.972671,0.191897,-0.245609,-23.643052,-34.450651,10.728815
1784589601.1105,16:20:01.110,16,false,0.687076,-0.38501,0.484924,0.380188,0.980484,0.179202,-0.246586,-23.476962,-34.504785,10.807379
1784589601.1419,16:20:01.141,17,false,0.686524,-0.384583,0.485229,0.381226,0.969741,0.174807,-0.246098,-23.626557,-34.553505,10.922948
1784589601.1732,16:20:01.173,18,false,0.684884,-0.384094,0.485962,0.383728,0.978531,0.156741,-0.249027,-23.641562,-34.70203,10.877422
1784589601.2046,16:20:01.204,19,false,0.683608,-0.383728,0.486694,0.385437,0.985367,0.154299,-0.233402,-23.699928,-34.731026,10.731772
1784589601.2357,16:20:01.235,20,false,0.682086,-0.38385,0.487183,0.38739,0.979507,0.137697,-0.229007,-23.752458,-34.757123,10.735272
1784589601.2668,16:20:01.266,21,false,0.68054,-0.384338,0.487549,0.38916,0.972183,0.135256,-0.236332,-23.814688,-34.825471,10.723467
1784589601.298,16:20:01.298,22,false,0.679886,-0.384583,0.487732,0.389832,0.974624,0.128908,-0.225101,-23.855742,-34.797261,10.727797
1784589601.3291,16:20:01.329,23,false,0.679607,-0.384766,0.487732,0.390137,0.985855,0.120607,-0.238773,-24.057182,-34.906457,10.791509
1784589601.3603,16:20:01.360,24,false,0.679608,-0.384888,0.487732,0.390015,0.990738,0.143069,-0.230961,-23.999217,-35.019687,10.789035
1784589601.3914,16:20:01.391,25,false,0.679716,-0.385254,0.487488,0.389771,0.979995,0.157229,-0.229984,-24.081633,-34.957102,10.592408
1784589601.4225,16:20:01.422,26,false,0.679449,-0.385925,0.486938,0.390259,0.974624,0.154299,-0.223636,-23.976361,-35.03536,10.430398
1784589601.4537,16:20:01.453,27,false,0.679406,-0.386292,0.486511,0.390503,0.968276,0.166506,-0.220706,-24.061063,-35.045977,10.52385
1784589601.485,16:20:01.485,28,false,0.679494,-0.38623,0.486633,0.390259,0.980972,0.150881,-0.225101,-24.212063,-34.876086,10.607957
1784589601.5164,16:20:01.516,29,false,0.679466,-0.385986,0.486572,0.390625,0.974136,0.139651,-0.234379,-24.243287,-34.962445,10.743469
1784589601.5477,16:20:01.547,30,false,0.679373,-0.385376,0.48645,0.391541,0.970718,0.136721,-0.239261,-24.136804,-34.950446,10.730844
1784589601.579,16:20:01.579,31,false,0.679658,-0.384888,0.486389,0.391602,0.979507,0.138674,-0.241215,-24.145646,-34.9546,10.704529
1784589601.6103,16:20:01.610,0,false,0.679875,-0.384766,0.486084,0.391724,0.981949,0.147951,-0.237308,-24.048927,-35.048062,10.695799
1784589601.6414,16:20:01.641,1,false,0.679612,-0.385254,0.485474,0.392456,0.985855,0.160159,-0.240726,-24.066556,-34.997593,10.702895
1784589601.6725,16:20:01.672,2,false,0.679418,-0.385498,0.485107,0.393005,0.979019,0.147951,-0.246098,-24.082423,-35.176479,10.529836
1784589601.7037,16:20:01.703,3,false,0.678702,-0.386169,0.484436,0.394409,0.985855,0.147951,-0.246098,-24.021934,-35.15803,10.418945
1784589601.7348,16:20:01.734,4,false,0.678569,-0.38623,0.484375,0.394653,0.985855,0.148928,-0.236332,-24.042263,-35.246103,10.528496
1784589601.766,16:20:01.766,5,false,0.677781,-0.386719,0.484192,0.395752,0.975113,0.132815,-0.236332,-24.000743,-35.310414,10.432692
1784589601.7971,16:20:01.797,6,false,0.677478,-0.386597,0.484314,0.39624,0.967788,0.138674,-0.23975,-24.023191,-35.278572,10.510961
1784589601.8282,16:20:01.828,7,false,0.677387,-0.386353,0.484436,0.396484,0.96144,0.135256,-0.248051,-23.923764,-35.279821,10.506634
1784589601.8596,16:20:01.859,8,false,0.677333,-0.386414,0.484314,0.396667,0.994644,0.131838,-0.236332,-23.75951,-35.280946,10.353201
1784589601.8909,16:20:01.890,9,false,0.67711,-0.386658,0.484131,0.397034,0.990249,0.137697,-0.242191,-23.791127,-35.296912,10.454373
1784589601.9223,16:20:01.922,10,false,0.677328,-0.386902,0.484131,0.396423,0.961929,0.139651,-0.227054,-23.789675,-35.221558,10.306166
1784589601.9536,16:20:01.953,11,false,0.677578,-0.386902,0.484131,0.395996,0.96144,0.157229,-0.229496,-23.83323,-35.27337,10.352226
1784589601.9849,16:20:01.984,12,false,0.67762,-0.387085,0.483826,0.396118,0.980484,0.160159,-0.243656,-23.827568,-35.170463,10.39368
1784589602.0163,16:20:02.016,13,false,0.677362,-0.38739,0.483643,0.396484,0.982437,0.144533,-0.235843,-23.717795,-35.107754,10.371173
1784589602.0474,16:20:02.047,14,false,0.677026,-0.387817,0.483521,0.39679,0.993668,0.140627,-0.242191,-23.648907,-35.051316,10.306056
1784589602.0786,16:20:02.078,15,false,0.676708,-0.388123,0.483521,0.397034,0.975113,0.14844,-0.225101,-23.631769,-34.895845,10.292311
1784589602.1097,16:20:02.109,16,false,0.676558,-0.388245,0.483582,0.397095,0.968276,0.155764,-0.224613,-23.646253,-35.054998,10.414526
1784589602.1408,16:20:02.140,17,false,0.676676,-0.388123,0.483765,0.39679,0.963394,0.153323,-0.226566,-23.734058,-35.078604,10.599288
1784589602.172,16:20:02.172,18,false,0.676417,-0.388428,0.483582,0.397156,0.968276,0.152834,-0.237797,-23.84299,-35.084897,10.571175
1784589602.2033,16:20:02.203,19,false,0.676296,-0.388733,0.483154,0.397583,0.971206,0.151369,-0.228519,-23.836352,-35.180283,10.635595
1784589602.2346,16:20:02.234,20,false,0.676436,-0.389099,0.482361,0.397949,0.978531,0.150393,-0.243168,-23.815423,-35.251177,10.603851
1784589602.266,16:20:02.266,21,false,0.676496,-0.38916,0.482178,0.39801,0.970718,0.161135,-0.245609,-23.990988,-35.210304,10.500512
1784589602.2973,16:20:02.297,22,false,0.676625,-0.389038,0.481995,0.398132,0.977554,0.145998,-0.234379,-24.014412,-35.068842,10.527137
1784589602.3287,16:20:02.328,23,false,0.676575,-0.388977,0.481812,0.398499,0.978042,0.14258,-0.240238,-24.050447,-35.225649,10.461377
1784589602.36,16:20:02.360,24,false,0.676498,-0.388672,0.481812,0.398926,0.982437,0.149905,-0.248539,-24.05297,-35.217237,10.342377
1784589602.3911,16:20:02.391,25,false,0.67647,-0.388306,0.481995,0.399109,0.971206,0.148928,-0.243656,-24.130011,-35.209666,10.295093
1784589602.4223,16:20:02.422,26,false,0.67652,-0.387878,0.482117,0.399292,0.977066,0.141115,-0.252934,-23.989994,-35.367344,10.207676
1784589602.4534,16:20:02.453,27,false,0.67616,-0.387878,0.482117,0.399902,0.968765,0.135744,-0.238285,-24.028471,-35.37467,10.353308
1784589602.4846,16:20:02.484,28,false,0.675987,-0.387878,0.482056,0.400269,0.974136,0.141604,-0.247074,-23.98833,-35.456033,10.349792
1784589602.5157,16:20:02.515,29,false,0.675852,-0.388,0.481995,0.400452,0.975601,0.132326,-0.233402,-23.907343,-35.529259,10.376536
1784589602.5468,16:20:02.546,30,false,0.675843,-0.387939,0.482056,0.400452,0.9673,0.152834,-0.23682,-23.864362,-35.400763,10.415559
1784589602.578,16:20:02.578,31,false,0.675708,-0.388062,0.481995,0.400635,0.966812,0.139162,-0.237797,-23.765863,-35.449609,10.435726
1784589602.6093,16:20:02.609,0,false,0.675498,-0.388428,0.481689,0.401001,0.977554,0.145998,-0.237308,-23.766938,-35.553385,10.289383
1784589602.6406,16:20:02.640,1,false,0.67547,-0.388489,0.481628,0.401062,0.973159,0.148928,-0.240238,-23.752951,-35.542107,10.322168
1784589602.672,16:20:02.672,2,false,0.67531,-0.388855,0.481506,0.401123,0.980484,0.144533,-0.240238,-23.665594,-35.531957,10.396535
1784589602.7033,16:20:02.703,3,false,0.675178,-0.38916,0.481445,0.401123,0.971206,0.147951,-0.230961,-23.676695,-35.627498,10.47842
1784589602.7347,16:20:02.734,4,false,0.67525,-0.38916,0.481445,0.401001,0.972671,0.147463,-0.237308,-23.731548,-35.593855,10.507255
1784589602.7658,16:20:02.765,5,false,0.675238,-0.389282,0.481262,0.401123,0.972183,0.146975,-0.241215,-23.631377,-35.608438,10.35376
1784589602.7969,16:20:02.796,6,false,0.675194,-0.389282,0.481323,0.401123,0.974136,0.14258,-0.238773,-23.690762,-35.65147,10.365153
1784589602.8281,16:20:02.828,7,false,0.675107,-0.389282,0.481445,0.401123,0.973648,0.142092,-0.238285,-23.744208,-35.585522,10.270729
1784589602.8592,16:20:02.859,8,false,0.675092,-0.389221,0.481567,0.401062,0.973648,0.151369,-0.229984,-23.822217,-35.630845,10.215656
1784589602.8904,16:20:02.890,9,false,0.674976,-0.389221,0.481628,0.401184,0.975113,0.142092,-0.238773,-23.802702,-35.581913,10.121229
1784589602.9215,16:20:02.921,10,false,0.674695,-0.389343,0.481567,0.401611,0.977066,0.143069,-0.235843,-23.859908,-35.612644,9.961475
1784589602.9526,16:20:02.952,11,false,0.674531,-0.389526,0.481445,0.401855,0.970718,0.140139,-0.239261,-23.776809,-35.475809,9.862558
1784589602.984,16:20:02.984,12,false,0.674649,-0.389648,0.481079,0.401978,0.965835,0.132326,-0.241215,-23.82165,-35.427427,9.818394
1784589603.0153,16:20:03.015,13,false,0.674869,-0.389771,0.480774,0.401855,0.978531,0.143557,-0.237308,-23.682562,-35.398837,9.943139
1784589603.0467,16:20:03.046,14,false,0.674967,-0.390015,0.480591,0.401672,0.985855,0.141115,-0.250004,-23.691966,-35.432922,9.965686
1784589603.078,16:20:03.078,15,false,0.67474,-0.39032,0.480713,0.401611,0.970718,0.150393,-0.232425,-23.730338,-35.403782,10.03084
1784589603.1093,16:20:03.109,16,false,0.674713,-0.390442,0.480652,0.401611,0.970718,0.14551,-0.247074,-23.764873,-35.377557,10.089479
1784589603.1407,16:20:03.140,17,false,0.674537,-0.390808,0.480652,0.40155,0.974624,0.147463,-0.239261,-23.766046,-35.339,10.202069
1784589603.172,16:20:03.172,18,false,0.674458,-0.390869,0.480713,0.40155,0.984878,0.151369,-0.232914,-23.617564,-35.304299,10.123954
1784589603.2033,16:20:03.203,19,false,0.673798,-0.390991,0.480774,0.402466,0.974624,0.133791,-0.230472,-23.783007,-35.377745,10.12842
1784589603.2345,16:20:03.234,20,false,0.673395,-0.39093,0.480774,0.403198,0.988296,0.140139,-0.232425,-23.692644,-35.324215,10.147393
1784589603.2656,16:20:03.265,21,false,0.673047,-0.390686,0.480896,0.40387,0.979507,0.138674,-0.233402,-23.730948,-35.380716,10.0897
1784589603.2968,16:20:03.296,22,false,0.673131,-0.390442,0.481079,0.403748,0.990249,0.139651,-0.229007,-23.705606,-35.44652,10.097591
1784589603.3279,16:20:03.327,23,false,0.673071,-0.39032,0.481262,0.403748,0.975601,0.125978,-0.240726,-23.622983,-35.341252,10.119647
1784589603.3592,16:20:03.359,24,false,0.67322,-0.390015,0.481506,0.403503,0.976089,0.14844,-0.232914,-23.683207,-35.231556,10.049774
1784589603.3906,16:20:03.390,25,false,0.673265,-0.390076,0.481445,0.403442,0.977554,0.146975,-0.233402,-23.632732,-35.222553,10.151381
1784589603.4219,16:20:03.421,26,false,0.673326,-0.390259,0.481262,0.403381,0.979995,0.141604,-0.246586,-23.64712,-35.199497,10.183012
1784589603.4533,16:20:03.453,27,false,0.673051,-0.390869,0.480896,0.403687,0.979995,0.141115,-0.238773,-23.764745,-35.223608,10.091849
1784589603.4846,16:20:03.484,28,false,0.673142,-0.391052,0.480774,0.403503,0.982925,0.143069,-0.229007,-23.750978,-35.185492,10.249064
1784589603.5157,16:20:03.515,29,false,0.672959,-0.391541,0.48053,0.403625,0.969741,0.152346,-0.243168,-23.753541,-35.240911,10.166249
1784589603.5469,16:20:03.546,30,false,0.67293,-0.391602,0.480469,0.403687,0.975601,0.144045,-0.242191,-23.800709,-35.290788,10.016947
1784589603.578,16:20:03.578,31,false,0.672873,-0.391724,0.480347,0.403809,0.969253,0.133791,-0.243168,-23.738484,-35.245954,10.002206
1784589603.6092,16:20:03.609,0,false,0.673057,-0.391296,0.480591,0.403625,0.980972,0.139162,-0.232914,-23.742296,-35.145788,10.048754
1784589603.6403,16:20:03.640,1,false,0.673291,-0.390747,0.481018,0.403259,0.973159,0.139162,-0.240238,-23.685912,-34.965916,10.105602
1784589603.6714,16:20:03.671,2,false,0.67301,-0.390564,0.481201,0.403687,0.984878,0.151369,-0.224613,-23.590305,-35.043293,10.171718
1784589603.7026,16:20:03.702,3,false,0.672964,-0.390442,0.481262,0.403809,0.970718,0.140139,-0.235355,-23.728566,-35.06807,10.231223
1784589603.7339,16:20:03.733,4,false,0.672993,-0.390076,0.481262,0.404114,0.974624,0.134768,-0.250004,-23.763278,-35.224954,10.239916
1784589603.7652,16:20:03.765,5,false,0.672874,-0.390076,0.481018,0.404602,0.987808,0.148928,-0.245609,-23.809472,-35.201658,10.187924
1784589603.7966,16:20:03.796,6,false,0.672608,-0.389954,0.481079,0.40509,0.996597,0.133791,-0.23682,-23.910863,-35.195645,10.126177
1784589603.8279,16:20:03.827,7,false,0.672493,-0.389771,0.481079,0.405457,0.978042,0.127932,-0.235843,-23.807714,-35.115464,10.040698
1784589603.8593,16:20:03.859,8,false,0.672517,-0.389526,0.48114,0.405579,0.974136,0.136721,-0.232914,-23.849465,-35.103116,10.158166
1784589603.8906,16:20:03.890,9,false,0.672383,-0.389404,0.481323,0.405701,0.971695,0.146487,-0.246098,-23.887041,-35.017234,10.114349
1784589603.9217,16:20:03.921,10,false,0.672346,-0.389404,0.481323,0.405762,0.97023,0.136233,-0.23975,-23.875997,-35.01471,10.045006
1784589603.9529,16:20:03.952,11,false,0.672277,-0.389587,0.481323,0.405701,0.989761,0.130373,-0.239261,-23.925874,-35.057299,10.102228
1784589603.984,16:20:03.984,12,false,0.672164,-0.389771,0.481384,0.40564,0.971695,0.138186,-0.227543,-23.821224,-35.09563,10.153728
1784589604.0152,16:20:04.015,13,false,0.672266,-0.389709,0.481445,0.405457,0.988785,0.144533,-0.236332,-23.756947,-35.130127,10.379524
1784589604.0463,16:20:04.046,14,false,0.672535,-0.389526,0.481628,0.404968,0.973159,0.149416,-0.234867,-23.818729,-35.161175,10.298618
1784589604.0774,16:20:04.077,15,false,0.672535,-0.389526,0.481628,0.404968,0.971206,0.147951,-0.23389,-23.859378,-35.248933,10.315525
1784589604.1086,16:20:04.108,16,false,0.672806,-0.389404,0.481812,0.404419,0.972671,0.136233,-0.238773,-23.881009,-35.133516,10.315787
1784589604.1399,16:20:04.139,17,false,0.673474,-0.390381,0.480957,0.403381,0.949233,0.118654,-0.235355,-23.691123,-35.074502,10.360885
1784589604.1712,16:20:04.171,18,false,0.674533,-0.392944,0.47876,0.401733,0.958999,0.106447,-0.237308,-23.669763,-34.886804,10.296796
1784589604.2026,16:20:04.202,19,false,0.677528,-0.398315,0.474243,0.396729,0.969253,0.12549,-0.228519,-23.725309,-34.822553,10.239116
1784589604.2339,16:20:04.233,20,false,0.678505,-0.40033,0.472473,0.395142,0.987808,0.155764,-0.239261,-23.670624,-34.704912,10.142343
1784589604.2653,16:20:04.265,21,false,0.681533,-0.405273,0.467834,0.390381,0.987808,0.183597,-0.231937,-23.71113,-34.599036,10.189831
1784589604.2966,16:20:04.296,22,false,0.682626,-0.406982,0.46582,0.389099,1.003433,0.201175,-0.235355,-23.642909,-34.488792,10.11294
1784589604.3279,16:20:04.327,23,false,0.680353,-0.402283,0.469727,0.39325,1.045914,0.240238,-0.266606,-23.626371,-34.389574,10.178323
1784589604.3591,16:20:04.359,24,false,0.676954,-0.394775,0.476074,0.399048,0.943862,0.231449,-0.237797,-23.536718,-34.330184,10.13249
1784589604.3902,16:20:04.390,25,false,0.673361,-0.386414,0.483032,0.404907,0.912123,0.216312,-0.230472,-23.560707,-34.396365,10.061333
1784589604.4214,16:20:04.421,26,false,0.671187,-0.378845,0.488831,0.408691,0.852552,0.050782,-0.194827,-23.567343,-34.440974,10.161784
1784589604.4525,16:20:04.452,27,false,0.674889,-0.380981,0.486023,0.403931,0.925795,0.038087,-0.205081,-23.438731,-34.496075,10.222282
1784589604.4836,16:20:04.483,28,false,0.680066,-0.386292,0.480164,0.397156,1.084001,0.07715,-0.241703,-23.472519,-34.545666,10.172054
1784589604.515,16:20:04.515,29,false,0.683931,-0.393188,0.474548,0.390442,1.152361,0.194339,-0.284672,-23.532835,-34.605253,10.141802
1784589604.5463,16:20:04.546,30,false,0.681885,-0.393799,0.476379,0.391174,1.059098,0.21387,-0.295415,-23.452536,-34.569157,10.069714
1784589604.5777,16:20:04.577,31,false,0.679257,-0.391113,0.479919,0.394104,0.875502,0.217288,-0.243656,-23.484943,-34.536671,10.079604
1784589604.609,16:20:04.609,0,false,0.679243,-0.390808,0.479736,0.394653,0.805188,0.153323,-0.200198,-23.514109,-34.462572,9.968874
1784589604.6403,16:20:04.640,1,false,0.683115,-0.394775,0.47345,0.391602,1.04445,0.125002,-0.225101,-23.46559,-34.365975,10.048663
1784589604.6715,16:20:04.671,2,false,0.684503,-0.398132,0.470032,0.389893,1.093278,0.155276,-0.259281,-23.362107,-34.293992,10.150381
1784589604.7026,16:20:04.702,3,false,0.68231,-0.399292,0.470764,0.391663,1.002457,0.190433,-0.274907,-23.268973,-34.303976,9.94285
1784589604.7337,16:20:04.733,4,false,0.680841,-0.398376,0.472595,0.392944,0.887709,0.221195,-0.243656,-23.319736,-34.073701,9.920565
1784589604.7649,16:20:04.764,5,false,0.680584,-0.397705,0.473022,0.393555,0.891615,0.213382,-0.231449,-23.35047,-33.956176,9.855647
1784589604.796,16:20:04.796,6,false,0.679775,-0.396606,0.473633,0.395325,1.031754,0.157229,-0.248051,-23.422991,-33.925173,9.901897
1784589604.8272,16:20:04.827,7,false,0.677075,-0.394409,0.476257,0.398987,1.063981,0.136233,-0.261234,-23.36863,-33.89727,10.048199
1784589604.8583,16:20:04.858,8,false,0.671607,-0.391113,0.481689,0.404907,0.960464,0.132815,-0.249516,-23.37952,-34.006742,9.910702
1784589604.8896,16:20:04.889,9,false,0.670042,-0.391724,0.481934,0.406616,0.888685,0.134768,-0.21387,-23.538859,-34.030497,9.861724
1784589604.921,16:20:04.921,10,false,0.67096,-0.393616,0.479675,0.405945,0.931655,0.120119,-0.215335,-23.682265,-34.007016,9.952228
1784589604.9523,16:20:04.952,11,false,0.673062,-0.395386,0.476501,0.40448,0.982437,0.152834,-0.247074,-23.542161,-34.060651,9.854236
1784589604.9837,16:20:04.983,12,false,0.674323,-0.395081,0.475281,0.404114,0.957534,0.160159,-0.23975,-23.595513,-34.064062,9.930535
1784589605.015,16:20:05.015,13,false,0.676099,-0.39386,0.474548,0.403198,0.957534,0.159182,-0.260746,-23.538854,-34.156855,10.014158
1784589605.0461,16:20:05.046,14,false,0.678681,-0.391968,0.473877,0.401489,0.988296,0.176761,-0.252445,-23.457952,-34.09083,10.059511
1784589605.0773,16:20:05.077,15,false,0.679838,-0.390442,0.474304,0.400513,0.983413,0.174319,-0.261723,-23.355233,-34.046361,10.040514
1784589605.1084,16:20:05.108,16,false,0.680693,-0.388672,0.475098,0.399841,0.978531,0.167971,-0.253422,-23.427278,-34.12597,9.993508
1784589605.1396,16:20:05.139,17,false,0.681009,-0.388123,0.475403,0.399475,0.971206,0.159182,-0.251469,-23.53698,-34.16771,10.040926
1784589605.1707,16:20:05.170,18,false,0.681436,-0.386597,0.476135,0.399353,0.966323,0.149905,-0.259281,-23.426359,-34.235185,9.993879
1784589605.2018,16:20:05.201,19,false,0.681876,-0.385254,0.47644,0.399536,0.9673,0.146975,-0.257816,-23.431476,-34.266003,9.891722
1784589605.233,16:20:05.233,20,false,0.682912,-0.382935,0.476929,0.399414,1.000015,0.151858,-0.261234,-23.361312,-34.263833,9.949319
1784589605.2643,16:20:05.264,21,false,0.683419,-0.381775,0.477234,0.399292,0.980484,0.146487,-0.265629,-23.343026,-34.38151,9.911433
1784589605.2956,16:20:05.295,22,false,0.683586,-0.381348,0.477234,0.399414,0.969253,0.136233,-0.25391,-23.416292,-34.352835,9.847428
1784589605.327,16:20:05.327,23,false,0.683919,-0.381287,0.477112,0.399048,0.978042,0.152346,-0.258793,-23.392508,-34.461612,9.849638
1784589605.3583,16:20:05.358,24,false,0.684001,-0.381714,0.476807,0.398865,0.972671,0.145022,-0.247074,-23.341195,-34.604373,9.746951
1784589605.3897,16:20:05.389,25,false,0.683819,-0.382507,0.476379,0.398926,0.963882,0.151858,-0.252445,-23.324921,-34.553411,9.549856
1784589605.421,16:20:05.421,26,false,0.683892,-0.38324,0.475891,0.398682,0.958511,0.152834,-0.25391,-23.340182,-34.672038,9.56687
1784589605.4523,16:20:05.452,27,false,0.684134,-0.383301,0.475647,0.398499,0.95314,0.14551,-0.255375,-23.383825,-34.659172,9.552275
1784589605.4835,16:20:05.483,28,false,0.68495,-0.382324,0.475769,0.397888,0.987808,0.146975,-0.260258,-23.363288,-34.6775,9.703632
1784589605.5146,16:20:05.514,29,false,0.685177,-0.381653,0.476135,0.397705,0.972183,0.140139,-0.271,-23.270035,-34.723902,9.615545
1784589605.5458,16:20:05.545,30,false,0.685452,-0.380127,0.476807,0.397888,0.978042,0.141604,-0.255375,-23.245923,-34.780619,9.491406
1784589605.5769,16:20:05.576,31,false,0.685332,-0.379089,0.477295,0.398499,0.985855,0.152834,-0.254398,-23.239176,-34.921386,9.349773
1784589605.6082,16:20:05.608,0,false,0.684959,-0.378723,0.477661,0.399048,0.989761,0.144045,-0.273442,-23.233104,-34.973308,9.297072
1784589605.6396,16:20:05.639,1,false,0.684218,-0.378418,0.478455,0.399658,0.980484,0.136233,-0.263676,-23.227639,-34.99013,9.294503
1784589605.6709,16:20:05.670,2,false,0.683983,-0.378418,0.478638,0.399841,0.978042,0.127443,-0.246586,-23.132998,-35.169762,9.337052
1784589605.7023,16:20:05.702,3,false,0.683679,-0.378723,0.479187,0.399414,0.974136,0.134768,-0.25391,-23.092682,-35.151985,9.375347
1784589605.7336,16:20:05.733,4,false,0.683579,-0.379211,0.479248,0.399048,0.977554,0.130373,-0.255863,-23.056397,-35.165893,9.335043
1784589605.7649,16:20:05.764,5,false,0.683898,-0.379883,0.478821,0.398376,0.972183,0.141604,-0.243168,-23.248049,-35.223272,9.34363
1784589605.7963,16:20:05.796,6,false,0.684235,-0.380005,0.478699,0.397827,0.97023,0.135744,-0.264652,-23.270997,-35.274913,9.456036
1784589605.8274,16:20:05.827,7,false,0.684494,-0.380127,0.478333,0.397705,0.976577,0.155764,-0.265629,-23.351466,-35.261574,9.362802
1784589605.8585,16:20:05.858,8,false,0.684766,-0.379944,0.478088,0.397705,0.958511,0.151858,-0.255863,-23.334165,-35.324339,9.308798
1784589605.8897,16:20:05.889,9,false,0.684916,-0.3797,0.477966,0.397827,0.979507,0.14844,-0.259281,-23.348502,-35.395781,9.349918
1784589605.9208,16:20:05.920,10,false,0.685,-0.379395,0.478088,0.397827,0.983413,0.144533,-0.263676,-23.361405,-35.50494,9.431787
1784589605.952,16:20:05.952,11,false,0.684938,-0.379211,0.478271,0.397888,0.984878,0.143069,-0.267094,-23.402925,-35.408783,9.355931
1784589605.9831,16:20:05.983,12,false,0.684839,-0.378967,0.478455,0.398071,0.973159,0.139651,-0.262211,-23.365524,-35.367104,9.36243
1784589606.0144,16:20:06.014,13,false,0.684763,-0.378784,0.478455,0.398376,0.957534,0.140627,-0.263676,-23.451494,-35.479131,9.323418
1784589606.0458,16:20:06.045,14,false,0.684708,-0.378845,0.478333,0.39856,0.970718,0.142092,-0.254398,-23.169975,-35.475278,9.243445
1784589606.0771,16:20:06.077,15,false,0.684567,-0.378906,0.478333,0.398743,0.971206,0.146487,-0.255863,-23.20073,-35.501718,9.186423
1784589606.1085,16:20:06.108,16,false,0.684398,-0.378967,0.478271,0.399048,0.969253,0.152834,-0.258793,-23.22841,-35.600284,9.105196
1784589606.1398,16:20:06.139,17,false,0.684195,-0.379089,0.47821,0.399353,0.969253,0.147951,-0.251469,-23.268276,-35.584316,9.18163
1784589606.1711,16:20:06.171,18,false,0.683983,-0.379395,0.477966,0.399719,0.968765,0.15967,-0.258793,-23.214433,-35.62976,9.160697
1784589606.2025,16:20:06.202,19,false,0.683868,-0.379639,0.477783,0.399902,0.965835,0.141115,-0.267094,-23.061296,-35.506168,9.201674
1784589606.2336,16:20:06.233,20,false,0.683637,-0.380127,0.477112,0.400635,0.963882,0.132326,-0.271,-23.058058,-35.708965,9.223598
1784589606.2647,16:20:06.264,21,false,0.684054,-0.380066,0.476563,0.400635,0.976577,0.136233,-0.261723,-23.025236,-35.741944,9.198469
1784589606.2959,16:20:06.295,22,false,0.684828,-0.379761,0.476257,0.399963,0.959976,0.137697,-0.26807,-23.08542,-35.78658,9.160899
1784589606.327,16:20:06.327,23,false,0.686753,-0.381226,0.474304,0.397583,0.963882,0.151369,-0.267582,-23.154538,-35.737028,9.007455
1784589606.3582,16:20:06.358,24,false,0.68934,-0.383545,0.47168,0.393982,0.952163,0.151369,-0.271489,-23.201792,-35.782155,8.959078
1784589606.3895,16:20:06.389,25,false,0.695194,-0.387939,0.465515,0.386658,0.966812,0.134279,-0.277836,-23.259273,-35.583508,9.109939
1784589606.4208,16:20:06.420,26,false,0.699522,-0.390381,0.460999,0.381775,0.973159,0.161135,-0.273442,-23.340914,-35.509402,9.155991
1784589606.4522,16:20:06.452,27,false,0.702927,-0.391968,0.457275,0.378357,1.00148,0.185061,-0.283696,-23.279807,-35.308122,9.107715
1784589606.4835,16:20:06.483,28,false,0.705838,-0.389587,0.455933,0.377014,1.00148,0.22266,-0.306157,-23.105179,-35.126971,9.034359
1784589606.5149,16:20:06.514,29,false,0.705935,-0.385803,0.457581,0.378723,0.973648,0.231937,-0.30518,-23.00783,-35.098519,8.878615
1784589606.5462,16:20:06.546,30,false,0.705504,-0.37854,0.460999,0.38269,0.890639,0.251957,-0.264652,-22.905262,-35.297219,8.783307
1784589606.5773,16:20:06.577,31,false,0.705687,-0.376038,0.461548,0.384155,0.901869,0.266606,-0.257328,-22.842858,-35.371373,8.772299
1784589606.6085,16:20:06.608,0,false,0.706377,-0.369568,0.461731,0.388916,0.946792,0.227054,-0.282231,-22.801648,-35.497927,8.5979
1784589606.6396,16:20:06.639,1,false,0.706285,-0.36676,0.461426,0.39209,0.958511,0.20264,-0.28809,-22.615021,-35.686595,8.485802
1784589606.6708,16:20:06.670,2,false,0.705588,-0.365051,0.46051,0.395996,0.976577,0.170901,-0.333989,-22.447057,-35.736765,8.160606
1784589606.7019,16:20:06.701,3,false,0.704602,-0.365479,0.459839,0.398132,0.998062,0.141115,-0.327642,-22.325797,-35.871641,8.181961
1784589606.733,16:20:06.733,4,false,0.703621,-0.366699,0.459045,0.399658,0.994644,0.14844,-0.319829,-22.216663,-35.963122,8.096503
1784589606.7644,16:20:06.764,5,false,0.702198,-0.36908,0.458252,0.400879,0.985855,0.139162,-0.323735,-22.148349,-36.075362,8.019591
1784589606.7957,16:20:06.795,6,false,0.701769,-0.370178,0.45813,0.400757,0.969253,0.141604,-0.3252,-22.146683,-36.086656,7.995231
1784589606.827,16:20:06.827,7,false,0.701429,-0.37085,0.458374,0.400452,0.981949,0.151369,-0.320317,-22.130229,-36.156635,7.988262
1784589606.8584,16:20:06.858,8,false,0.701281,-0.371155,0.459045,0.399658,0.946304,0.158694,-0.323735,-22.07056,-36.144848,8.026851
1784589606.8897,16:20:06.889,9,false,0.701511,-0.370789,0.459839,0.398682,0.946792,0.153811,-0.320806,-22.166395,-36.104331,8.121396
1784589606.9211,16:20:06.921,10,false,0.70263,-0.369995,0.46051,0.396667,0.926284,0.169924,-0.298833,-22.177878,-36.247312,8.10181
1784589606.9524,16:20:06.952,11,false,0.703015,-0.36969,0.460693,0.396057,0.931167,0.166018,-0.314458,-22.203167,-36.286272,8.039321
1784589606.9835,16:20:06.983,12,false,0.704029,-0.36853,0.461487,0.394409,0.932143,0.180667,-0.304692,-22.196018,-36.426013,8.012989
1784589607.0147,16:20:07.014,13,false,0.704566,-0.367371,0.461853,0.394104,0.937026,0.163577,-0.324224,-22.2494,-36.611595,7.944428
1784589607.0458,16:20:07.045,14,false,0.70468,-0.365173,0.462585,0.395081,0.957534,0.148928,-0.306157,-22.327352,-36.62908,7.703278
1784589607.077,16:20:07.077,15,false,0.704572,-0.362,0.463989,0.396545,0.955581,0.139162,-0.332525,-22.367601,-36.570048,7.695596
1784589607.1083,16:20:07.108,16,false,0.704558,-0.360718,0.464539,0.397095,0.960952,0.123537,-0.314946,-22.26924,-36.576735,7.673728
1784589607.1396,16:20:07.139,17,false,0.704323,-0.357239,0.466064,0.398865,0.971206,0.106447,-0.322759,-22.419977,-36.822014,7.594232
1784589607.171,16:20:07.171,18,false,0.704401,-0.355042,0.467102,0.399475,0.959976,0.112795,-0.327153,-22.346286,-36.878273,7.642316
1784589607.2023,16:20:07.202,19,false,0.704702,-0.352356,0.468262,0.399963,0.957046,0.104494,-0.337407,-22.384641,-37.093398,7.461284
1784589607.2337,16:20:07.233,20,false,0.704989,-0.351074,0.468689,0.400085,0.967788,0.118166,-0.337407,-22.359346,-37.152426,7.388079
1784589607.265,16:20:07.265,21,false,0.705412,-0.35022,0.469055,0.399658,0.973159,0.129397,-0.32813,-22.321626,-37.489675,7.441825
1784589607.2963,16:20:07.296,22,false,0.705453,-0.350037,0.46991,0.398743,0.961929,0.123537,-0.323735,-22.317586,-37.673568,7.460288
1784589607.3277,16:20:07.327,23,false,0.705604,-0.349915,0.470703,0.397644,0.954604,0.121096,-0.323247,-22.31395,-37.809163,7.581582
1784589607.359,16:20:07.359,24,false,0.706198,-0.349365,0.471558,0.396057,0.943862,0.102052,-0.3252,-22.385446,-38.005969,7.556162
1784589607.3901,16:20:07.390,25,false,0.708547,-0.345947,0.473511,0.392517,0.942885,0.050294,-0.336431,-22.449793,-38.138232,7.593099
1784589607.4213,16:20:07.421,26,false,0.711643,-0.340393,0.476257,0.388428,0.969253,0.049317,-0.35938,-22.44789,-38.212408,7.760928
1784589607.4524,16:20:07.452,27,false,0.717642,-0.328918,0.483276,0.378479,1.007828,0.03418,-0.362799,-22.356454,-38.443658,7.672712
1784589607.4836,16:20:07.483,28,false,0.719786,-0.324463,0.486511,0.374084,0.986831,0.067384,-0.343267,-22.259208,-38.741506,7.757809
1784589607.5147,16:20:07.514,29,false,0.725785,-0.311768,0.497009,0.359192,0.939467,0.116213,-0.327153,-22.321225,-39.114247,7.654951
1784589607.546,16:20:07.546,30,false,0.729529,-0.304504,0.503296,0.348938,0.943862,0.125978,-0.305669,-22.436856,-39.539436,7.831548
1784589607.5774,16:20:07.577,31,false,0.735466,-0.294373,0.511292,0.333191,0.946304,0.144045,-0.313481,-22.630646,-40.086599,7.975532
1784589607.6087,16:20:07.608,0,false,0.73836,-0.290161,0.514587,0.325317,0.934585,0.168948,-0.288579,-22.77515,-40.623907,8.135024
1784589607.6401,16:20:07.640,1,false,0.740693,-0.287781,0.516541,0.31897,0.923354,0.169436,-0.286625,-22.979973,-41.062622,8.278568
1784589607.6714,16:20:07.671,2,false,0.742932,-0.287659,0.517273,0.312622,0.965347,0.182132,-0.298344,-23.089544,-41.502328,8.377849
1784589607.7027,16:20:07.702,3,false,0.744743,-0.286987,0.518005,0.307678,0.966323,0.172854,-0.286137,-23.292835,-42.00274,8.422341
1784589607.7339,16:20:07.733,4,false,0.744825,-0.288879,0.51709,0.307251,0.973159,0.160159,-0.289067,-23.37112,-42.378341,8.611922
1784589607.765,16:20:07.765,5,false,0.7438,-0.292358,0.515259,0.309509,0.975601,0.146975,-0.285649,-23.471484,-42.791152,8.737683
1784589607.7962,16:20:07.796,6,false,0.742588,-0.294678,0.513916,0.312439,0.978042,0.140139,-0.29395,-23.501996,-43.102866,8.940591
1784589607.8273,16:20:07.827,7,false,0.740021,-0.298218,0.511902,0.31842,0.9673,0.127443,-0.299809,-23.664042,-43.488086,9.108255
1784589607.8586,16:20:07.858,8,false,0.739069,-0.299438,0.51123,0.320557,0.966323,0.107912,-0.301762,-23.615483,-43.789922,9.333921
1784589607.8898,16:20:07.889,9,false,0.736399,-0.303162,0.509216,0.326355,0.962417,0.116213,-0.303227,-23.556827,-44.151297,9.522067
1784589607.9211,16:20:07.921,10,false,0.734326,-0.306885,0.507141,0.33075,0.952163,0.12842,-0.300786,-23.623666,-44.326997,9.691399
1784589607.9525,16:20:07.952,11,false,0.732969,-0.309631,0.505432,0.333801,0.955093,0.141115,-0.295415,-23.818407,-44.515034,10.068105
1784589607.9838,16:20:07.983,12,false,0.731219,-0.313416,0.502747,0.338135,0.96437,0.143069,-0.301274,-23.963765,-44.773991,10.033294
1784589608.0151,16:20:08.015,13,false,0.730562,-0.314697,0.501831,0.339722,0.967788,0.125978,-0.308598,-24.094588,-45.03696,10.106641
1784589608.0463,16:20:08.046,14,false,0.728659,-0.317993,0.499268,0.344482,0.973159,0.127932,-0.319341,-24.182421,-45.243724,10.217515
1784589608.0774,16:20:08.077,15,false,0.727443,-0.319824,0.497925,0.34729,0.980972,0.135744,-0.302739,-24.276424,-45.369996,10.407025
1784589608.1085,16:20:08.108,16,false,0.725334,-0.322021,0.496887,0.351135,0.968765,0.105959,-0.299809,-24.375981,-45.618226,10.592537
1784589608.1397,16:20:08.139,17,false,0.724133,-0.323059,0.496277,0.353516,0.948257,0.121584,-0.303227,-24.510443,-45.722002,10.684729
1784589608.1708,16:20:08.170,18,false,0.722972,-0.324341,0.4953,0.356079,0.968276,0.127443,-0.291508,-24.556691,-45.860261,10.663025
1784589608.202,16:20:08.202,19,false,0.720937,-0.326782,0.493835,0.359985,0.964858,0.141604,-0.291997,-24.553451,-46.059465,10.79303
1784589608.2331,16:20:08.233,20,false,0.719635,-0.328796,0.492432,0.362671,0.958999,0.138186,-0.307622,-24.819705,-46.119117,10.865173
1784589608.2642,16:20:08.264,21,false,0.718511,-0.331055,0.490662,0.365234,0.962417,0.136233,-0.299809,-24.640627,-46.098034,10.974963
1784589608.2956,16:20:08.295,22,false,0.716929,-0.334534,0.488098,0.368591,0.964858,0.136721,-0.294926,-24.554225,-46.049153,11.028912
1784589608.3269,16:20:08.326,23,false,0.715675,-0.336975,0.486267,0.371216,0.958511,0.14844,-0.295415,-24.685817,-46.094882,11.032605
1784589608.3583,16:20:08.358,24,false,0.71344,-0.339966,0.483948,0.375793,0.96144,0.119142,-0.307622,-24.72948,-46.210808,11.095745
1784589608.3896,16:20:08.389,25,false,0.712633,-0.340576,0.483521,0.377319,0.986343,0.125978,-0.309087,-24.918316,-46.315141,11.15257
1784589608.4209,16:20:08.420,26,false,0.709535,-0.342834,0.482788,0.382019,0.972671,0.12549,-0.293462,-24.878915,-46.498764,11.113989
1784589608.4523,16:20:08.452,27,false,0.706837,-0.345093,0.482666,0.385132,0.958999,0.122072,-0.290043,-24.768684,-46.484578,11.079267
1784589608.4834,16:20:08.483,28,false,0.703494,-0.348328,0.481995,0.38916,0.943862,0.116213,-0.290532,-24.744246,-46.501719,11.197555
1784589608.5146,16:20:08.514,29,false,0.700873,-0.351624,0.480347,0.392944,0.961929,0.132326,-0.286625,-24.767112,-46.636776,11.124569
1784589608.5457,16:20:08.545,30,false,0.700129,-0.352722,0.479675,0.394104,0.973159,0.130373,-0.283207,-24.8176,-46.713466,11.058881
1784589608.5768,16:20:08.576,31,false,0.698257,-0.355469,0.47821,0.396729,0.979019,0.140627,-0.292485,-24.848086,-46.737626,11.119392
1784589608.608,16:20:08.608,0,false,0.696483,-0.357483,0.477417,0.398987,0.989761,0.143069,-0.294438,-24.800753,-46.819185,11.039268
1784589608.6391,16:20:08.639,1,false,0.693507,-0.360229,0.476868,0.402344,0.972183,0.111818,-0.28809,-24.892739,-46.877634,11.086787
1784589608.6704,16:20:08.670,2,false,0.691834,-0.361511,0.476624,0.404358,0.959487,0.100587,-0.290043,-24.900756,-46.900331,11.054785
1784589608.7018,16:20:08.701,3,false,0.690604,-0.36261,0.476379,0.405762,0.96437,0.116701,-0.294438,-24.907972,-46.845989,11.070845
1784589608.7331,16:20:08.733,4,false,0.689627,-0.364868,0.474976,0.407043,0.943862,0.117678,-0.277836,-24.944374,-46.797081,11.219883
1784589608.7645,16:20:08.764,5,false,0.68959,-0.366394,0.473328,0.407654,0.939956,0.113283,-0.287602,-25.051905,-46.708202,11.219433
1784589608.7958,16:20:08.795,6,false,0.68984,-0.368103,0.470947,0.408447,0.945815,0.136721,-0.29395,-25.073914,-46.822611,11.219027
1784589608.8271,16:20:08.827,7,false,0.691451,-0.371216,0.466492,0.40802,0.949722,0.106447,-0.317876,-25.153537,-46.761087,11.12894
1784589608.8583,16:20:08.858,8,false,0.692909,-0.373291,0.463623,0.406921,0.971695,0.104005,-0.324712,-25.060706,-46.675808,11.167492
1784589608.8894,16:20:08.889,9,false,0.69576,-0.377502,0.459229,0.403137,0.962905,0.105959,-0.30811,-25.081834,-46.569148,11.172281
1784589608.9206,16:20:08.920,10,false,0.697005,-0.379089,0.457581,0.401367,0.952651,0.10547,-0.31104,-25.10085,-46.368478,10.997145
1784589608.9517,16:20:08.951,11,false,0.701645,-0.384277,0.452393,0.394165,0.958511,0.163088,-0.316899,-25.117964,-46.217783,11.093737
1784589608.9828,16:20:08.982,12,false,0.705954,-0.388367,0.448608,0.386719,0.940932,0.203128,-0.324712,-25.103459,-45.97748,11.240486
1784589609.014,16:20:09.014,13,false,0.712519,-0.393555,0.444092,0.374451,0.969741,0.263676,-0.335943,-25.15022,-45.7313,11.282837
1784589609.0453,16:20:09.045,14,false,0.714896,-0.393616,0.445068,0.368652,0.979995,0.317388,-0.344244,-25.13249,-45.464876,11.410676
1784589609.0767,16:20:09.076,15,false,0.715618,-0.391418,0.449097,0.364685,0.947768,0.335454,-0.346685,-25.191302,-45.255003,11.346285
1784589609.108,16:20:09.108,16,false,0.714775,-0.384399,0.458862,0.361633,0.936049,0.275883,-0.316411,-25.408724,-45.125932,11.318241
1784589609.1393,16:20:09.139,17,false,0.712981,-0.377197,0.467407,0.361816,0.928237,0.261723,-0.303227,-25.574497,-45.084537,11.397678
1784589609.1707,16:20:09.170,18,false,0.711128,-0.371338,0.475281,0.361267,0.875502,0.133791,-0.262211,-25.544247,-44.957559,11.558894
1784589609.202,16:20:09.202,19,false,0.710453,-0.368103,0.482483,0.356323,0.944839,0.098146,-0.235843,-25.517021,-45.052633,11.838574
1784589609.2332,16:20:09.233,20,false,0.711615,-0.368469,0.48407,0.35144,0.983902,0.101076,-0.233402,-25.522426,-45.168106,12.075331
1784589609.2643,16:20:09.264,21,false,0.713595,-0.367371,0.485291,0.346863,1.014176,0.190433,-0.265141,-25.691783,-45.242125,12.273459
1784589609.2954,16:20:09.295,22,false,0.714697,-0.36377,0.486511,0.34668,1.032242,0.237797,-0.266606,-25.694665,-45.353603,12.556451
1784589609.3266,16:20:09.326,23,false,0.714262,-0.358032,0.489868,0.348816,1.021012,0.261234,-0.302251,-25.876705,-45.558611,12.811144
1784589609.3577,16:20:09.357,24,false,0.712024,-0.349915,0.49585,0.353149,0.899428,0.245121,-0.275395,-26.100357,-45.83284,12.920737
1784589609.389,16:20:09.389,25,false,0.711715,-0.348572,0.497498,0.352783,0.859388,0.199222,-0.264652,-26.09229,-46.139463,13.139001
1784589609.4204,16:20:09.420,26,false,0.713311,-0.350464,0.496765,0.348694,0.920424,0.143069,-0.25684,-26.189706,-46.221023,13.350393
1784589609.4517,16:20:09.451,27,false,0.713718,-0.35083,0.496521,0.347839,0.978531,0.161624,-0.268559,-26.292335,-46.414057,13.525692
1784589609.4831,16:20:09.483,28,false,0.713412,-0.350586,0.496704,0.34845,0.924819,0.189456,-0.25977,-26.474423,-46.572835,13.593737
1784589609.5144,16:20:09.514,29,false,0.713225,-0.35022,0.49646,0.349548,0.924819,0.197757,-0.267094,-26.488765,-46.790503,13.834425
1784589609.5457,16:20:09.545,30,false,0.71312,-0.349548,0.496094,0.350952,1.003922,0.189944,-0.274907,-26.516626,-46.92659,13.856643
1784589609.5769,16:20:09.576,31,false,0.712386,-0.348877,0.496582,0.352417,0.942397,0.150393,-0.267094,-26.676286,-47.138791,14.07104
1784589609.6082,16:20:09.608,0,false,0.713159,-0.349915,0.495605,0.351196,0.89015,0.076173,-0.264164,-26.74521,-47.329772,14.234089
1784589609.6394,16:20:09.639,1,false,0.717514,-0.352661,0.491516,0.345276,1.029801,0.11426,-0.29395,-26.822196,-47.307255,14.350926
1784589609.6705,16:20:09.670,2,false,0.72013,-0.353394,0.48938,0.342102,1.023941,0.154299,-0.304204,-26.846622,-47.376712,14.515895
1784589609.7016,16:20:09.701,3,false,0.722088,-0.352966,0.488586,0.339539,0.98439,0.20557,-0.306645,-26.883559,-47.274732,14.67932
1784589609.7328,16:20:09.732,4,false,0.72328,-0.352295,0.488831,0.337341,0.968765,0.218265,-0.299321,-27.006525,-47.30258,14.811449
1784589609.7639,16:20:09.763,5,false,0.72291,-0.351624,0.490112,0.336975,0.973648,0.234379,-0.301274,-27.132148,-47.357552,14.87055
1784589609.7953,16:20:09.795,6,false,0.720585,-0.350464,0.493347,0.33844,0.956558,0.216312,-0.276371,-27.155487,-47.377118,14.983556
1784589609.8266,16:20:09.826,7,false,0.719706,-0.350098,0.494385,0.339172,0.933608,0.187503,-0.258793,-27.296122,-47.439589,14.980584
1784589609.8579,16:20:09.857,8,false,0.717569,-0.349487,0.496826,0.340759,0.931167,0.172366,-0.238773,-27.303062,-47.645352,15.187264
1784589609.8893,16:20:09.889,9,false,0.716544,-0.349426,0.497803,0.341553,0.96437,0.183108,-0.243656,-27.249494,-47.770723,15.388229
1784589609.9206,16:20:09.920,10,false,0.71514,-0.349426,0.499023,0.342712,0.982437,0.169436,-0.250492,-27.35082,-47.958326,15.53919
1784589609.9519,16:20:09.951,11,false,0.713699,-0.349487,0.500244,0.343872,0.98732,0.166018,-0.258305,-27.427061,-47.992584,15.660102
1784589609.9831,16:20:09.983,12,false,0.713252,-0.349487,0.500671,0.344177,0.976577,0.172854,-0.258305,-27.480723,-48.187909,15.813783
1784589610.0142,16:20:10.014,13,false,0.712005,-0.349426,0.501648,0.345398,0.973159,0.155276,-0.244633,-27.633696,-48.288932,15.84742
1784589610.0454,16:20:10.045,14,false,0.711325,-0.349121,0.502319,0.34613,0.971206,0.16846,-0.238773,-27.696602,-48.574252,16.057139
1784589610.0765,16:20:10.076,15,false,0.710736,-0.348694,0.503113,0.346619,0.969741,0.171389,-0.232425,-27.887803,-48.666549,16.305701
1784589610.1076,16:20:10.107,16,false,0.710746,-0.348206,0.503479,0.346558,0.964858,0.15967,-0.240726,-28.000068,-48.719708,16.469592
1784589610.1388,16:20:10.138,17,false,0.710912,-0.347656,0.50354,0.34668,0.961929,0.16553,-0.250004,-28.011383,-48.827366,16.676909
1784589610.1701,16:20:10.170,18,false,0.71165,-0.346008,0.503296,0.347168,0.974136,0.166995,-0.258793,-27.961752,-48.909305,16.803679
1784589610.2015,16:20:10.201,19,false,0.712098,-0.344299,0.50354,0.347595,0.991226,0.171878,-0.267094,-27.902129,-49.042865,17.007495
1784589610.2328,16:20:10.232,20,false,0.71222,-0.342407,0.50415,0.348328,0.974136,0.152834,-0.270512,-28.072777,-49.222885,17.161022
1784589610.2641,16:20:10.264,21,false,0.71241,-0.340271,0.504822,0.34906,0.989273,0.119142,-0.274418,-27.942237,-49.489579,17.388919
1784589610.2953,16:20:10.295,22,false,0.712429,-0.339478,0.505371,0.348999,0.988296,0.115236,-0.279789,-28.123828,-49.684743,17.48935
1784589610.3265,16:20:10.326,23,false,0.711712,-0.338928,0.506958,0.348694,0.984878,0.124025,-0.251469,-28.182583,-49.785621,17.504968
1784589610.3577,16:20:10.357,24,false,0.711348,-0.338745,0.507507,0.348816,0.954604,0.116213,-0.252934,-28.26537,-49.95118,17.474163
1784589610.3888,16:20:10.388,25,false,0.710511,-0.338196,0.508667,0.349365,0.939956,0.128908,-0.250492,-28.250155,-50.08523,17.655792
1784589610.4199,16:20:10.419,26,false,0.710301,-0.337769,0.509033,0.34967,0.953628,0.127443,-0.248539,-28.146738,-50.190921,17.759443
1784589610.4511,16:20:10.451,27,false,0.710625,-0.336731,0.50885,0.350281,0.96437,0.149905,-0.257816,-28.068618,-50.256135,17.97236
1784589610.4822,16:20:10.482,28,false,0.710598,-0.336853,0.508301,0.351013,0.997574,0.150393,-0.255863,-28.11794,-50.389596,17.954631
1784589610.5133,16:20:10.513,29,false,0.710611,-0.336975,0.508118,0.351135,0.996109,0.163088,-0.265629,-28.207191,-50.390081,18.133075
1784589610.5447,16:20:10.544,30,false,0.709989,-0.337769,0.507996,0.351807,0.985367,0.143069,-0.258305,-28.167886,-50.584918,18.174044
1784589610.576,16:20:10.576,31,false,0.709391,-0.337952,0.508118,0.352661,0.97023,0.148928,-0.25977,-28.252143,-50.64064,18.255777
1784589610.6074,16:20:10.607,0,false,0.708628,-0.337769,0.508667,0.353577,0.970718,0.143557,-0.23975,-28.283112,-50.735651,18.284476
1784589610.6387,16:20:10.638,1,false,0.706978,-0.33844,0.509155,0.35553,0.956558,0.137697,-0.240726,-28.355846,-50.985654,18.400028
1784589610.67,16:20:10.670,2,false,0.705879,-0.339172,0.509338,0.35675,0.966812,0.122072,-0.240726,-28.451215,-51.195702,18.36944
1784589610.7012,16:20:10.701,3,false,0.704091,-0.340332,0.509583,0.358826,0.993179,0.13135,-0.230961,-28.462277,-51.309976,18.461541
1784589610.7323,16:20:10.732,4,false,0.702882,-0.341003,0.510071,0.359863,0.98439,0.139162,-0.245121,-28.427371,-51.487592,18.57434
1784589610.7635,16:20:10.763,5,false,0.701638,-0.341919,0.510437,0.360901,0.970718,0.118654,-0.239261,-28.650172,-51.527816,18.735675
1784589610.7946,16:20:10.794,6,false,0.700306,-0.341919,0.510925,0.362793,0.98439,0.110842,-0.244633,-28.641338,-51.608879,18.746292
1784589610.8257,16:20:10.825,7,false,0.699255,-0.341614,0.511353,0.364502,0.978042,0.121096,-0.232425,-28.723111,-51.666882,18.890431
1784589610.8569,16:20:10.856,8,false,0.69812,-0.341858,0.511475,0.366272,0.956558,0.111818,-0.23389,-28.677076,-51.689177,18.975295
1784589610.888,16:20:10.888,9,false,0.69801,-0.342041,0.511108,0.366821,0.973648,0.084474,-0.254398,-28.635645,-51.813919,18.976903
1784589610.9194,16:20:10.919,10,false,0.697829,-0.340942,0.510376,0.369202,1.009293,0.092287,-0.270512,-28.658172,-51.986002,18.963397
1784589610.9507,16:20:10.950,11,false,0.696995,-0.34021,0.510498,0.371277,1.00441,0.106447,-0.248539,-28.61863,-52.081062,19.011057
1784589610.982,16:20:10.982,12,false,0.694577,-0.340698,0.511597,0.37384,0.982925,0.102052,-0.248539,-28.717628,-52.331108,19.143673
1784589611.0134,16:20:11.013,13,false,0.693045,-0.341614,0.511902,0.375427,0.962905,0.084474,-0.251957,-28.702049,-52.376703,19.292936
1784589611.0447,16:20:11.044,14,false,0.691993,-0.342041,0.511963,0.376892,0.976577,0.074708,-0.254887,-28.643166,-52.597185,19.352504
1784589611.076,16:20:11.076,15,false,0.690392,-0.342712,0.511963,0.379211,0.985367,0.087892,-0.246098,-28.814479,-52.690942,19.346299
1784589611.1072,16:20:11.107,16,false,0.689052,-0.343689,0.512207,0.380432,0.997086,0.072755,-0.252934,-28.744354,-52.730461,19.370622
1784589611.1383,16:20:11.138,17,false,0.687619,-0.344971,0.512817,0.381042,0.997086,0.087404,-0.25098,-28.980317,-52.840798,19.422421
1784589611.1695,16:20:11.169,18,false,0.685376,-0.346558,0.513977,0.38208,0.986831,0.070802,-0.23389,-28.968377,-52.865332,19.618578
1784589611.2006,16:20:11.200,19,false,0.684014,-0.346924,0.514954,0.382874,0.979995,0.082521,-0.234379,-28.927723,-52.932274,19.869889
1784589611.2317,16:20:11.231,20,false,0.68157,-0.347961,0.515991,0.384888,0.997086,0.08838,-0.227054,-28.921042,-53.067291,19.94653
1784589611.2629,16:20:11.262,21,false,0.680709,-0.34845,0.516296,0.385559,0.984878,0.085451,-0.225101,-28.900075,-53.024314,20.075323
1784589611.2942,16:20:11.294,22,false,0.678031,-0.350525,0.516907,0.387573,0.982925,0.09131,-0.212406,-28.955975,-53.165081,20.146374
1784589611.3256,16:20:11.325,23,false,0.67609,-0.352356,0.517151,0.388977,0.979995,0.072267,-0.210941,-28.99133,-53.231956,20.300044
1784589611.3569,16:20:11.356,24,false,0.6732,-0.355042,0.517334,0.391296,0.973159,0.075685,-0.209476,-29.02315,-53.39682,20.303762
1784589611.3882,16:20:11.388,25,false,0.671555,-0.356689,0.51709,0.392944,0.980484,0.081544,-0.204593,-28.947111,-53.455475,20.322062
1784589611.4196,16:20:11.419,26,false,0.670283,-0.357971,0.516785,0.394348,0.978531,0.075685,-0.206546,-29.08803,-53.597987,20.428255
1784589611.4509,16:20:11.450,27,false,0.668658,-0.359131,0.516357,0.396606,0.988785,0.072267,-0.200198,-29.140087,-53.591664,20.37429
1784589611.4823,16:20:11.482,28,false,0.667564,-0.359497,0.516296,0.398193,1.006851,0.077638,-0.217777,-29.186939,-53.61588,20.475261
1784589611.5134,16:20:11.513,29,false,0.66585,-0.35968,0.516541,0.400574,1.016129,0.072267,-0.210452,-29.169291,-53.77226,20.476411
1784589611.5445,16:20:11.544,30,false,0.664533,-0.359741,0.517151,0.401917,0.986831,0.059571,-0.208499,-29.003868,-53.718601,20.552215
1784589611.5757,16:20:11.575,31,false,0.663274,-0.359802,0.517822,0.403076,0.978042,0.059571,-0.208499,-28.989573,-53.774986,20.560624
1784589611.6068,16:20:11.606,0,false,0.661789,-0.35968,0.518616,0.404602,0.98439,0.058595,-0.210941,-28.87203,-53.855639,20.568192
1784589611.6381,16:20:11.638,1,false,0.660968,-0.35968,0.519043,0.405396,0.994156,0.05713,-0.21387,-28.766242,-53.823551,20.649772
1784589611.6695,16:20:11.669,2,false,0.660355,-0.359375,0.519653,0.405884,0.987808,0.059083,-0.206058,-28.671032,-53.824578,20.693286
1784589611.7008,16:20:11.700,3,false,0.659292,-0.359192,0.520508,0.406677,1.00148,0.047364,-0.20557,-28.555436,-54.034857,20.702542
1784589611.7322,16:20:11.732,4,false,0.658813,-0.358948,0.520996,0.407043,1.002945,0.0542,-0.209964,-28.526168,-53.925031,20.710871
1784589611.7635,16:20:11.763,5,false,0.658587,-0.358032,0.521912,0.407043,0.99855,0.053712,-0.213382,-28.574597,-53.856096,20.718368
1784589611.7948,16:20:11.794,6,false,0.658515,-0.357788,0.522217,0.406982,0.991226,0.038575,-0.206546,-28.498551,-53.928638,20.680254
1784589611.8262,16:20:11.826,7,false,0.658681,-0.357483,0.522644,0.406433,0.975601,0.049805,-0.19971,-28.474972,-54.053742,20.556228
1784589611.8575,16:20:11.857,8,false,0.659106,-0.357483,0.522583,0.405823,0.98732,0.062013,-0.207034,-28.498613,-54.046705,20.758635
1784589611.8889,16:20:11.888,9,false,0.659608,-0.357666,0.522156,0.405396,0.985855,0.074708,-0.198734,-28.684381,-54.100186,20.716494
1784589611.92,16:20:11.920,10,false,0.659853,-0.357788,0.521667,0.405518,0.989273,0.065431,-0.209964,-28.76185,-54.013735,20.588844
1784589611.9511,16:20:11.951,11,false,0.659974,-0.357605,0.521545,0.40564,0.991226,0.056641,-0.201663,-28.741849,-54.145283,20.743128
1784589611.9823,16:20:11.982,12,false,0.659862,-0.357178,0.52179,0.405884,1.011734,0.047852,-0.218753,-28.723847,-54.218815,20.732445
1784589612.0134,16:20:12.013,13,false,0.65954,-0.356812,0.5224,0.405945,0.986343,0.033204,-0.204105,-28.677739,-54.38967,20.707877
1784589612.0446,16:20:12.044,14,false,0.659104,-0.356323,0.523376,0.405823,0.994156,0.042481,-0.209964,-28.815687,-54.378947,20.805397
1784589612.0759,16:20:12.075,15,false,0.658368,-0.355469,0.525024,0.40564,0.992691,0.043946,-0.203616,-28.805256,-54.488928,20.803441
1784589612.1072,16:20:12.107,16,false,0.657655,-0.355225,0.52594,0.405823,0.996597,0.03711,-0.198245,-28.810822,-54.498187,20.786727
1784589612.1386,16:20:12.138,17,false,0.656539,-0.355103,0.527039,0.406311,0.992691,0.033204,-0.195315,-28.785923,-54.536428,20.921223
1784589612.1699,16:20:12.169,18,false,0.655829,-0.355103,0.527405,0.406982,0.986831,0.026368,-0.192874,-28.763515,-54.51103,20.862823
1784589612.2013,16:20:12.201,19,false,0.655133,-0.355164,0.52771,0.407654,1.003922,0.032715,-0.189456,-28.683531,-54.503125,20.899986
1784589612.2324,16:20:12.232,20,false,0.653876,-0.355652,0.528137,0.408691,0.992691,0.032715,-0.19971,-28.835854,-54.645549,20.828756
1784589612.2635,16:20:12.263,21,false,0.653274,-0.355835,0.528381,0.40918,0.989761,0.019532,-0.188968,-28.748637,-54.624193,20.899234
1784589612.2947,16:20:12.294,22,false,0.653055,-0.355652,0.52887,0.409058,0.996109,0.025879,-0.194339,-28.62528,-54.604972,21.007525
1784589612.3258,16:20:12.325,23,false,0.652889,-0.355774,0.528992,0.409058,1.002945,0.032715,-0.189456,-28.618936,-54.707304,21.045172
1784589612.357,16:20:12.357,24,false,0.652492,-0.356262,0.52887,0.409424,0.993668,0.038575,-0.188479,-28.583318,-54.63491,21.0641
1784589612.3881,16:20:12.388,25,false,0.652282,-0.356506,0.52887,0.409546,0.994644,0.040528,-0.187503,-28.626032,-54.764156,21.081136
1784589612.4192,16:20:12.419,26,false,0.652009,-0.356018,0.529724,0.409302,1.009293,0.024414,-0.195804,-28.574751,-54.596354,21.141329
1784589612.4506,16:20:12.450,27,false,0.651789,-0.355225,0.530762,0.408997,1.00148,0.029297,-0.195315,-28.438875,-54.609824,21.225411
1784589612.4819,16:20:12.481,28,false,0.651357,-0.354675,0.531799,0.408813,0.997574,0.029786,-0.189944,-28.52594,-54.711671,21.241269
1784589612.5132,16:20:12.513,29,false,0.650874,-0.353394,0.533569,0.408386,0.993668,0.031739,-0.17969,-28.559438,-54.878102,21.285449
1784589612.5446,16:20:12.544,30,false,0.650436,-0.352844,0.534607,0.408203,0.994156,0.039551,-0.175784,-28.634447,-54.923213,21.39998
1784589612.5759,16:20:12.575,31,false,0.650161,-0.352173,0.535522,0.40802,0.98732,0.039551,-0.184573,-28.672047,-54.829229,21.458197
1784589612.6073,16:20:12.607,0,false,0.649385,-0.351624,0.536499,0.408447,0.990249,0.030274,-0.172854,-28.526442,-54.939043,21.570407
1784589612.6384,16:20:12.638,1,false,0.648847,-0.35144,0.536804,0.409058,0.99855,0.02295,-0.183108,-28.529981,-55.007967,21.656443
1784589612.6695,16:20:12.669,2,false,0.647994,-0.351196,0.537109,0.410217,0.989761,0.023926,-0.178225,-28.563075,-55.040092,21.59929
1784589612.7007,16:20:12.700,3,false,0.647745,-0.351135,0.53717,0.410583,0.998062,0.011719,-0.174319,-28.607812,-55.05405,21.562807
1784589612.7318,16:20:12.731,4,false,0.647141,-0.350891,0.53717,0.411743,0.989761,0.013672,-0.183108,-28.5434,-55.246059,21.48511
1784589612.763,16:20:12.763,5,false,0.646987,-0.350342,0.537292,0.412292,0.995621,0.016114,-0.190921,-28.620012,-55.329143,21.654444
1784589612.7941,16:20:12.794,6,false,0.646987,-0.349182,0.53772,0.41272,0.994156,0.011231,-0.184085,-28.464657,-55.433827,21.657307
1784589612.8254,16:20:12.825,7,false,0.646701,-0.348816,0.537598,0.413635,0.991226,0.021973,-0.18555,-28.414559,-55.557951,21.465483
1784589612.8568,16:20:12.856,8,false,0.646889,-0.347778,0.537903,0.413818,0.999527,0.001953,-0.17969,-28.279749,-55.535077,21.562011
1784589612.8881,16:20:12.888,9,false,0.646944,-0.346497,0.538147,0.41449,0.992203,0.010254,-0.192874,-28.382727,-55.58926,21.544209
1784589612.9195,16:20:12.919,10,false,0.64696,-0.345764,0.538269,0.414917,1.00441,0.011231,-0.186038,-28.400638,-55.667932,21.528188
1784589612.9508,16:20:12.950,11,false,0.647025,-0.344543,0.538879,0.415039,0.992203,-0.000977,-0.184085,-28.416758,-55.738737,21.663307
1784589612.9819,16:20:12.981,12,false,0.646999,-0.343872,0.539246,0.415161,0.980484,-0.001465,-0.187991,-28.446219,-55.966954,21.725099
1784589613.0131,16:20:13.013,13,false,0.646843,-0.343628,0.539307,0.415527,0.982437,0.001465,-0.18555,-28.427874,-56.09758,21.676034
1784589613.0442,16:20:13.044,14,false,0.64657,-0.343506,0.539429,0.415894,0.993668,0.001953,-0.186526,-28.366501,-56.200189,21.676738
1784589613.0753,16:20:13.075,15,false,0.646249,-0.343689,0.539368,0.416321,0.999039,-0.006348,-0.188968,-28.400988,-56.247676,21.632509
1784589613.1065,16:20:13.106,16,false,0.645857,-0.343811,0.539429,0.416748,0.999527,0.000488,-0.191409,-28.312396,-56.395091,21.592704
1784589613.1376,16:20:13.137,17,false,0.645461,-0.343994,0.539551,0.417053,1.000992,-0.018555,-0.194339,-28.427063,-56.378227,21.661556
1784589613.169,16:20:13.169,18,false,0.64514,-0.344299,0.539551,0.417297,0.996109,-0.002441,-0.191897,-28.440541,-56.228464,21.663707
1784589613.2003,16:20:13.200,19,false,0.64449,-0.345093,0.53949,0.417725,0.998062,0.002441,-0.185061,-28.392855,-56.332939,21.755367
1784589613.2316,16:20:13.231,20,false,0.644223,-0.345276,0.539551,0.417908,0.99855,-0.003906,-0.186526,-28.484522,-56.337243,21.748137
1784589613.263,16:20:13.263,21,false,0.643322,-0.34613,0.539368,0.418823,0.993668,-0.000488,-0.178225,-28.522162,-56.385978,21.74163
1784589613.2943,16:20:13.294,22,false,0.642788,-0.34668,0.539368,0.419189,0.999527,-0.013184,-0.177737,-28.45136,-56.42984,21.735774
1784589613.3255,16:20:13.325,23,false,0.642063,-0.347473,0.539246,0.4198,1.000015,0.000488,-0.173831,-28.357731,-56.304824,21.71555
1784589613.3566,16:20:13.356,24,false,0.641875,-0.347778,0.539368,0.419678,0.986831,-0.011231,-0.17969,-28.467864,-56.341847,21.697348
1784589613.3879,16:20:13.387,25,false,0.641641,-0.348389,0.539063,0.419922,0.996109,-0.007324,-0.186526,-28.4324,-56.345261,21.740782
1784589613.4191,16:20:13.419,26,false,0.641569,-0.348877,0.538879,0.419861,0.998062,0.002441,-0.172854,-28.310759,-56.438056,21.690149
1784589613.4502,16:20:13.450,27,false,0.641677,-0.349182,0.538696,0.419678,0.989761,0.018067,-0.173831,-28.305959,-56.386987,21.64458
1784589613.4814,16:20:13.481,28,false,0.641891,-0.34906,0.538757,0.419373,0.991714,0.000488,-0.172366,-28.286686,-56.206441,21.618521
1784589613.5125,16:20:13.512,29,false,0.642338,-0.348877,0.538818,0.418762,0.997574,-0.009766,-0.176272,-28.359062,-56.208441,21.714699
1784589613.5436,16:20:13.543,30,false,0.642552,-0.348755,0.538879,0.418457,0.993179,0.000977,-0.180667,-28.409248,-56.225195,21.711536
1784589613.575,16:20:13.575,31,false,0.642622,-0.348877,0.538574,0.41864,0.993668,-0.004883,-0.167971,-28.379645,-56.285135,21.70869
1784589613.6063,16:20:13.606,0,false,0.642706,-0.348816,0.538513,0.41864,0.993668,-0.005371,-0.175784,-28.502541,-56.219451,21.750989
1784589613.6376,16:20:13.637,1,false,0.643021,-0.348633,0.538208,0.418701,0.996109,-0.008789,-0.192386,-28.38884,-56.130427,21.684382
1784589613.669,16:20:13.669,2,false,0.643465,-0.348328,0.537781,0.418823,0.997574,0.005371,-0.186038,-28.480909,-56.304521,21.504805
1784589613.7003,16:20:13.700,3,false,0.643683,-0.348145,0.537781,0.41864,1.003433,0.004395,-0.192874,-28.369371,-56.132221,21.462816
1784589613.7317,16:20:13.731,4,false,0.644027,-0.347717,0.538025,0.418152,0.992203,0.005859,-0.187015,-28.343756,-56.05192,21.529703
1784589613.7628,16:20:13.762,5,false,0.6442,-0.347595,0.538086,0.417908,0.989273,0.007813,-0.186038,-28.365564,-55.90488,21.440363
1784589613.7939,16:20:13.793,6,false,0.644351,-0.347473,0.537842,0.418091,0.991226,0.007324,-0.18555,-28.474915,-55.907129,21.37491
1784589613.8251,16:20:13.825,7,false,0.644559,-0.347351,0.53772,0.41803,0.981949,0.002441,-0.187015,-28.408838,-55.924107,21.375819
1784589613.8562,16:20:13.856,8,false,0.644876,-0.347412,0.537109,0.418274,0.995132,0.000488,-0.184573,-28.289553,-55.999202,21.212144
1784589613.8876,16:20:13.887,9,false,0.645155,-0.347168,0.53717,0.417969,0.992203,0.0,-0.188968,-28.331735,-55.992018,21.319052
1784589613.9187,16:20:13.918,10,false,0.645578,-0.346863,0.537048,0.417725,0.988785,0.011719,-0.187991,-28.10053,-56.060323,21.310592
1784589613.95,16:20:13.950,11,false,0.645882,-0.346802,0.536865,0.417542,0.990738,0.018067,-0.188479,-28.116753,-56.076935,21.258117
1784589613.9814,16:20:13.981,12,false,0.645972,-0.346802,0.536804,0.41748,1.005386,0.000977,-0.190433,-28.265938,-56.22647,21.121166
1784589614.0127,16:20:14.012,13,false,0.646023,-0.346802,0.536743,0.41748,0.984878,0.004395,-0.190921,-28.175898,-56.39096,21.177356
1784589614.0441,16:20:14.044,14,false,0.646006,-0.346802,0.536621,0.417664,0.999527,-0.008301,-0.198245,-28.184584,-56.299739,21.108297
1784589614.0754,16:20:14.075,15,false,0.646027,-0.346741,0.536682,0.417603,0.990249,0.011719,-0.184573,-28.177448,-56.127917,21.061098
1784589614.1065,16:20:14.106,16,false,0.645772,-0.346985,0.536499,0.41803,0.991714,0.003906,-0.193362,-28.096256,-56.302262,21.063479
1784589614.1377,16:20:14.137,17,false,0.64579,-0.347046,0.536438,0.41803,0.98439,0.001465,-0.187015,-28.142814,-56.279726,21.125438
1784589614.169,16:20:14.169,18,false,0.645599,-0.347107,0.536438,0.418274,0.99855,0.008301,-0.189456,-28.154809,-56.169721,21.166248
1784589614.2002,16:20:14.200,19,false,0.645459,-0.347168,0.536377,0.418518,1.00734,0.00293,-0.200198,-28.090835,-56.025855,21.128207
1784589614.2313,16:20:14.231,20,false,0.645357,-0.347168,0.536499,0.418518,0.992203,0.003906,-0.187015,-28.033258,-56.120683,21.243509
1784589614.2626,16:20:14.262,21,false,0.645085,-0.347473,0.536438,0.418762,0.99855,0.000977,-0.180179,-28.056208,-56.206029,21.093065
1784589614.2938,16:20:14.293,22,false,0.645107,-0.347412,0.536499,0.418701,0.991714,-0.004395,-0.190921,-28.211448,-56.193116,21.047389
1784589614.3251,16:20:14.325,23,false,0.644947,-0.347717,0.536255,0.419006,0.999527,-0.015625,-0.187503,-28.276395,-56.256264,21.051141
1784589614.3564,16:20:14.356,24,false,0.645009,-0.347717,0.536133,0.419067,0.988296,0.006836,-0.193362,-28.185308,-56.313098,21.009657
1784589614.3878,16:20:14.387,25,false,0.645116,-0.348145,0.535583,0.41925,1.005386,0.008789,-0.201175,-28.118284,-56.229663,21.106906
1784589614.4191,16:20:14.419,26,false,0.645444,-0.348145,0.535522,0.418823,1.016617,0.015625,-0.186038,-28.102824,-56.30411,21.119661
1784589614.4505,16:20:14.450,27,false,0.645442,-0.34845,0.535278,0.418884,1.00441,0.005371,-0.195315,-28.118818,-56.221575,21.13114
1784589614.4816,16:20:14.481,28,false,0.645572,-0.34845,0.535217,0.418762,1.00441,-0.002441,-0.190921,-28.312658,-56.281877,21.081657
1784589614.5127,16:20:14.512,29,false,0.645678,-0.348328,0.535217,0.418701,0.992691,0.000977,-0.197757,-28.217945,-56.26138,21.007213
1784589614.5439,16:20:14.543,30,false,0.6455,-0.348572,0.535034,0.419006,0.989761,0.00293,-0.187503,-28.147658,-56.227978,20.880399
1784589614.575,16:20:14.575,31,false,0.645607,-0.348633,0.534912,0.418945,0.988296,0.010742,-0.192874,-28.263845,-56.242779,20.826082
1784589614.6062,16:20:14.606,0,false,0.645777,-0.348633,0.534851,0.418762,1.001968,0.011719,-0.192874,-28.338505,-56.136468,20.896827
1784589614.6375,16:20:14.637,1,false,0.646005,-0.348511,0.534607,0.418823,1.000992,0.012696,-0.198734,-28.2113,-56.010881,20.796005
1784589614.6686,16:20:14.668,2,false,0.646056,-0.348511,0.534546,0.418823,1.001968,0.004395,-0.201175,-28.216446,-56.137115,20.690311
1784589614.7,16:20:14.700,3,false,0.646012,-0.348633,0.534424,0.418945,1.000992,0.00293,-0.195315,-28.146308,-56.190909,20.669957
1784589614.7313,16:20:14.731,4,false,0.646291,-0.348389,0.534485,0.41864,1.000504,0.003418,-0.187991,-28.157954,-56.089786,20.681545
1784589614.7627,16:20:14.762,5,false,0.646631,-0.348145,0.534424,0.418396,0.991226,0.011231,-0.193851,-28.078711,-56.118405,20.647113
1784589614.794,16:20:14.794,6,false,0.646743,-0.348083,0.534424,0.418274,0.993179,0.005859,-0.188479,-28.052255,-56.144163,20.646032
1784589614.8251,16:20:14.825,7,false,0.64706,-0.347839,0.534485,0.417908,1.002945,0.014649,-0.191409,-28.043398,-56.077622,20.704874
1784589614.8563,16:20:14.856,8,false,0.647172,-0.347778,0.534485,0.417786,0.993668,0.013184,-0.201175,-27.990565,-56.092504,20.712971
1784589614.8874,16:20:14.887,9,false,0.647316,-0.347656,0.534485,0.417664,0.979507,0.01416,-0.196292,-27.823384,-55.941406,20.705304
1784589614.9186,16:20:14.918,10,false,0.647489,-0.347534,0.534546,0.417419,0.989761,0.012696,-0.188479,-27.942091,-55.820371,20.68345
1784589614.9497,16:20:14.949,11,false,0.647417,-0.347656,0.534363,0.417664,0.98146,0.012696,-0.192874,-27.854527,-55.771255,20.783412
1784589614.9808,16:20:14.980,12,false,0.647281,-0.347595,0.534424,0.417847,0.995621,0.006348,-0.202152,-27.700951,-55.756959,20.693931
1784589615.012,16:20:15.012,13,false,0.646988,-0.347534,0.534485,0.418274,0.979507,-0.000488,-0.197757,-27.667409,-55.863723,20.658261
1784589615.0431,16:20:15.043,14,false,0.646786,-0.347595,0.534546,0.418457,0.987808,0.009277,-0.187015,-27.682082,-55.76541,20.551388
1784589615.0744,16:20:15.074,15,false,0.646466,-0.347656,0.534607,0.418823,0.993668,0.011719,-0.195315,-27.695289,-55.79656,20.634648
1784589615.1058,16:20:15.105,16,false,0.646224,-0.347717,0.534668,0.419067,1.003922,-0.00293,-0.191409,-27.677266,-55.839548,20.589952
1784589615.1371,16:20:15.137,17,false,0.646423,-0.347473,0.534729,0.418884,0.990249,-0.001953,-0.192386,-27.646093,-55.743653,20.639449
1784589615.1685,16:20:15.168,18,false,0.646568,-0.347351,0.534729,0.418762,0.998062,-0.003906,-0.198734,-27.692806,-55.732117,20.683995
1784589615.1998,16:20:15.199,19,false,0.646669,-0.34729,0.53479,0.418579,1.00734,0.009277,-0.204593,-27.70494,-55.691827,20.649318
1784589615.2311,16:20:15.231,20,false,0.646417,-0.347717,0.534912,0.418457,1.000504,0.004395,-0.192874,-27.566322,-55.610704,20.54334
1784589615.2625,16:20:15.262,21,false,0.646496,-0.347717,0.534912,0.418335,0.991714,0.015137,-0.187503,-27.621012,-55.477878,20.522728
1784589615.2936,16:20:15.293,22,false,0.646297,-0.347961,0.534851,0.418518,1.000504,0.0,-0.204593,-27.535648,-55.552734,20.623808
1784589615.3248,16:20:15.324,23,false,0.646209,-0.348145,0.53479,0.418579,0.98732,0.012207,-0.190433,-27.578452,-55.664967,20.580196
1784589615.3559,16:20:15.355,24,false,0.646209,-0.348145,0.53479,0.418579,0.992691,0.002441,-0.195315,-27.616975,-55.765976,20.540945
1784589615.387,16:20:15.387,25,false,0.646238,-0.348206,0.534668,0.41864,0.990249,0.0,-0.187015,-27.801184,-55.782115,20.535527
1784589615.4182,16:20:15.418,26,false,0.646332,-0.348083,0.534729,0.418518,0.994644,0.003906,-0.190921,-27.817434,-55.901317,20.560558
1784589615.4493,16:20:15.449,27,false,0.646484,-0.348022,0.534729,0.418335,1.002457,0.01709,-0.198734,-27.981598,-55.978691,20.583086
1784589615.4807,16:20:15.480,28,false,0.646635,-0.347961,0.534729,0.418152,0.989761,0.013184,-0.192874,-28.069529,-55.764205,20.483731
1784589615.512,16:20:15.512,29,false,0.64662,-0.348083,0.534668,0.418152,0.993668,0.003906,-0.183597,-28.133714,-55.780521,20.484034
1784589615.5433,16:20:15.543,30,false,0.646688,-0.348145,0.534546,0.418152,0.997086,0.020996,-0.188968,-28.206434,-55.690529,20.469353
1784589615.5747,16:20:15.574,31,false,0.646688,-0.348145,0.534546,0.418152,1.00148,0.005371,-0.187991,-28.331697,-55.564674,20.366417
1784589615.6058,16:20:15.605,0,false,0.6468,-0.348083,0.534546,0.41803,0.991714,0.011719,-0.193362,-28.160311,-55.571036,20.393406
1784589615.6369,16:20:15.636,1,false,0.646839,-0.348083,0.534546,0.417969,0.989761,0.006836,-0.19971,-28.155602,-55.501992,20.342926
1784589615.6681,16:20:15.668,2,false,0.647023,-0.347961,0.534546,0.417786,0.997574,0.013184,-0.190433,-28.196226,-55.589391,20.447033
1784589615.6992,16:20:15.699,3,false,0.647156,-0.347839,0.534607,0.417603,0.994156,0.004883,-0.187503,-28.232787,-55.593281,20.436052
1784589615.7304,16:20:15.730,4,false,0.647333,-0.347656,0.534607,0.41748,0.996109,0.007813,-0.187991,-28.265692,-55.641644,20.530846
1784589615.7617,16:20:15.761,5,false,0.647339,-0.34729,0.53479,0.417542,0.995132,0.009277,-0.186526,-28.295307,-55.715077,20.511484
1784589615.7928,16:20:15.792,6,false,0.647306,-0.346924,0.534973,0.417664,0.988296,0.006348,-0.187991,-28.172421,-55.706399,20.598735
1784589615.824,16:20:15.824,7,false,0.647055,-0.346741,0.535156,0.417969,0.993179,-0.006836,-0.197269,-28.211363,-55.66868,20.467907
1784589615.8553,16:20:15.855,8,false,0.64688,-0.34668,0.535217,0.418213,1.003433,0.003418,-0.189944,-28.261364,-55.724457,20.395023
1784589615.8867,16:20:15.886,9,false,0.646661,-0.346741,0.535156,0.418579,0.994644,-0.002441,-0.197757,-28.111965,-55.699886,20.254659
1784589615.918,16:20:15.918,10,false,0.64665,-0.346802,0.535034,0.418701,0.994156,0.003906,-0.191897,-28.112091,-55.737588,20.218054
1784589615.9493,16:20:15.949,11,false,0.646632,-0.346741,0.535095,0.418701,0.989273,-0.002441,-0.190433,-28.052389,-55.756566,20.349602
1784589615.9805,16:20:15.980,12,false,0.646864,-0.346436,0.535156,0.418518,1.003922,0.001953,-0.199222,-28.178103,-55.713831,20.378272
1784589616.0116,16:20:16.011,13,false,0.64691,-0.346558,0.534973,0.418579,1.001968,-0.000977,-0.192386,-28.081892,-55.809954,20.359213
1784589616.0428,16:20:16.042,14,false,0.646806,-0.34668,0.534973,0.41864,0.993179,0.001953,-0.187015,-28.070071,-55.821695,20.34206
1784589616.0739,16:20:16.073,15,false,0.646845,-0.34668,0.534973,0.418579,0.990249,0.000488,-0.188479,-27.984663,-55.936939,20.461207
1784589616.105,16:20:16.105,16,false,0.646899,-0.346558,0.535034,0.418518,0.984878,0.005859,-0.188968,-27.907796,-55.861213,20.493671
1784589616.1362,16:20:16.136,17,false,0.646785,-0.346497,0.534973,0.418823,0.997086,-0.016114,-0.192386,-27.988154,-55.822967,20.567749
1784589616.1673,16:20:16.167,18,false,0.646754,-0.346313,0.535034,0.418945,0.991714,0.003906,-0.200687,-27.940845,-55.758637,20.350297
1784589616.1984,16:20:16.198,19,false,0.646794,-0.346069,0.535095,0.419006,1.005386,-0.002441,-0.192874,-27.973037,-55.77551,20.393851
1784589616.2298,16:20:16.229,20,false,0.646682,-0.34613,0.535095,0.419128,0.992691,0.000977,-0.197757,-27.852471,-55.865465,20.43305
1784589616.2611,16:20:16.261,21,false,0.646816,-0.346008,0.535156,0.418945,1.004898,-0.001953,-0.201175,-27.729007,-55.841748,20.498237
1784589616.2925,16:20:16.292,22,false,0.646849,-0.345947,0.535156,0.418945,1.000992,-0.010254,-0.200198,-27.69266,-55.865263,20.512043
1784589616.3238,16:20:16.323,23,false,0.646953,-0.345825,0.535156,0.418884,1.00441,-0.000488,-0.19971,-27.74967,-55.826612,20.479607
1784589616.3549,16:20:16.354,24,false,0.646946,-0.345764,0.535156,0.418945,1.000015,0.001953,-0.199222,-27.830886,-55.80678,20.570046
1784589616.3863,16:20:16.386,25,false,0.647213,-0.34552,0.535278,0.418579,0.979995,0.003418,-0.186038,-27.799305,-55.773977,20.561718
1784589616.4176,16:20:16.417,26,false,0.647234,-0.345459,0.535339,0.418518,0.991714,0.003418,-0.193851,-27.800789,-55.729501,20.539268
1784589616.4488,16:20:16.448,27,false,0.647054,-0.345825,0.535034,0.418884,0.991714,0.009766,-0.192386,-27.682494,-55.764241,20.414387
1784589616.4799,16:20:16.479,28,false,0.647033,-0.345886,0.534973,0.418945,0.993179,0.001465,-0.197757,-27.710613,-55.855323,20.451532
1784589616.511,16:20:16.511,29,false,0.64726,-0.345642,0.535095,0.41864,0.993668,0.003906,-0.187503,-27.691058,-55.937297,20.425148
1784589616.5422,16:20:16.542,30,false,0.647325,-0.34552,0.535095,0.41864,0.99855,-0.006836,-0.195315,-27.748228,-56.040981,20.461217
1784589616.5735,16:20:16.573,31,false,0.647383,-0.345337,0.535095,0.418701,0.997574,-0.011719,-0.200687,-27.635189,-56.119342,20.448818
1784589616.6049,16:20:16.604,0,false,0.647272,-0.345398,0.535095,0.418823,0.992691,0.003906,-0.194827,-27.682993,-56.040329,20.392797
1784589616.6362,16:20:16.636,1,false,0.647265,-0.345337,0.535095,0.418884,0.994644,-0.011231,-0.196292,-27.740969,-56.029033,20.297516
1784589616.6675,16:20:16.667,2,false,0.647197,-0.345337,0.535034,0.419067,0.977554,-0.010742,-0.187991,-27.83801,-56.018867,20.166903
1784589616.6989,16:20:16.698,3,false,0.647168,-0.345337,0.534973,0.419189,1.001968,-0.014649,-0.184085,-27.835623,-55.979809,20.079258
1784589616.7302,16:20:16.730,4,false,0.647636,-0.345093,0.534851,0.418823,0.98732,-0.004883,-0.204593,-27.848429,-55.974565,20.045239
1784589616.7614,16:20:16.761,5,false,0.647808,-0.345215,0.534851,0.418457,0.994156,-0.006348,-0.199222,-27.695463,-56.014707,20.074438
1784589616.7925,16:20:16.792,6,false,0.647854,-0.345276,0.534851,0.418335,0.995621,0.000488,-0.18262,-27.662469,-56.125603,19.951178
1784589616.8236,16:20:16.823,7,false,0.647696,-0.345581,0.534607,0.41864,0.989273,0.000977,-0.176761,-27.722498,-56.10578,20.079506
1784589616.8548,16:20:16.854,8,false,0.647677,-0.345825,0.534424,0.418701,0.999527,0.008789,-0.196292,-27.761571,-56.102892,20.060416
1784589616.8859,16:20:16.885,9,false,0.647741,-0.346008,0.53418,0.418762,0.991714,0.000488,-0.202152,-27.766828,-56.130201,20.043235
1784589616.917,16:20:16.917,10,false,0.647903,-0.345947,0.534119,0.41864,0.99855,0.010254,-0.195804,-27.846329,-56.050102,19.923096
1784589616.9484,16:20:16.948,11,false,0.647964,-0.345886,0.53418,0.418518,0.994644,0.012696,-0.19678,-27.843111,-55.978014,20.069186
1784589616.9797,16:20:16.979,12,false,0.648025,-0.345886,0.534058,0.418579,0.996109,0.000488,-0.195804,-27.810306,-55.853318,20.036174
1784589617.0111,16:20:17.011,13,false,0.648043,-0.345947,0.533997,0.418579,1.000015,0.005859,-0.197757,-27.676106,-55.741092,20.006464
1784589617.0424,16:20:17.042,14,false,0.648215,-0.345825,0.534058,0.418335,0.995132,0.016602,-0.191409,-27.645048,-55.625135,19.994678
1784589617.0737,16:20:17.073,15,false,0.648316,-0.345764,0.534119,0.418152,0.996597,-0.000488,-0.188968,-27.676912,-55.610497,20.253241
1784589617.1051,16:20:17.105,16,false,0.648532,-0.345581,0.534119,0.417969,0.994156,0.008301,-0.192874,-27.795312,-55.731907,20.336408
1784589617.1364,16:20:17.136,17,false,0.648621,-0.345581,0.534058,0.417908,0.990738,0.008301,-0.200198,-27.767288,-55.631822,20.321536
1784589617.1678,16:20:17.167,18,false,0.64865,-0.345642,0.533936,0.417969,0.990738,-0.000488,-0.204105,-27.637389,-55.616515,20.308151
1784589617.1989,16:20:17.198,19,false,0.64865,-0.345642,0.533936,0.417969,0.996597,0.009277,-0.203128,-27.729834,-55.692462,20.340966
1784589617.2302,16:20:17.230,20,false,0.648761,-0.345581,0.533936,0.417847,0.988785,0.011719,-0.194339,-27.738265,-55.686045,20.235915
1784589617.2614,16:20:17.261,21,false,0.648581,-0.345947,0.53363,0.418213,0.992691,0.005859,-0.202152,-27.790714,-55.844762,20.156323
1784589617.2925,16:20:17.292,22,false,0.648607,-0.345825,0.53363,0.418274,0.986343,0.004883,-0.192386,-27.808011,-55.853022,20.294044
1784589617.3237,16:20:17.323,23,false,0.6486,-0.345764,0.53363,0.418335,0.989273,-0.001465,-0.197757,-27.778717,-55.815595,20.313316
1784589617.355,16:20:17.355,24,false,0.648496,-0.345642,0.533691,0.418518,0.991226,0.005371,-0.20264,-27.78226,-55.946403,20.345614
1784589617.3863,16:20:17.386,25,false,0.648324,-0.345764,0.53363,0.418762,0.992691,-0.000977,-0.194827,-27.665818,-55.884684,20.374683
1784589617.4177,16:20:17.417,26,false,0.648389,-0.345642,0.53363,0.418762,0.993668,-0.004395,-0.198245,-27.68065,-56.008583,20.370937
1784589617.449,16:20:17.449,27,false,0.648238,-0.345764,0.533447,0.419128,0.995621,-0.006348,-0.195804,-27.694,-56.015415,20.218027
1784589617.4802,16:20:17.480,28,false,0.648364,-0.345581,0.533508,0.419006,0.994644,0.000488,-0.204593,-27.735922,-55.976703,20.304716
1784589617.5115,16:20:17.511,29,false,0.648176,-0.346069,0.533325,0.419128,1.001968,0.015137,-0.20557,-27.758698,-55.926908,20.218244
1784589617.5428,16:20:17.542,30,false,0.648136,-0.346069,0.533325,0.419189,0.996597,0.004883,-0.184085,-27.809104,-55.926954,20.215188
1784589617.574,16:20:17.574,31,false,0.648154,-0.34613,0.533264,0.419189,0.991714,0.0,-0.208988,-27.85447,-55.777457,20.242346
1784589617.6053,16:20:17.605,0,false,0.648298,-0.346008,0.533264,0.419067,0.991714,-0.000977,-0.202152,-27.940161,-55.747586,20.23688
1784589617.6365,16:20:17.636,1,false,0.64823,-0.346008,0.533203,0.41925,0.996597,-0.002441,-0.193362,-27.807928,-55.705749,20.067468
1784589617.6676,16:20:17.667,2,false,0.64798,-0.346313,0.53302,0.419617,0.99855,0.010742,-0.205081,-27.838458,-55.668095,19.914998
1784589617.6987,16:20:17.698,3,false,0.647926,-0.346436,0.532959,0.419678,0.993179,0.010254,-0.197757,-27.776211,-55.694022,19.822636
1784589617.7301,16:20:17.730,4,false,0.647993,-0.346497,0.532837,0.419678,1.00734,0.006348,-0.20264,-27.720189,-55.717357,19.814279
1784589617.7614,16:20:17.761,5,false,0.648013,-0.346741,0.532654,0.419678,1.00734,0.003906,-0.187991,-27.804354,-55.753312,19.866574
1784589617.7927,16:20:17.792,6,false,0.648149,-0.346802,0.532593,0.419495,0.98732,-0.00293,-0.205081,-27.91001,-55.785671,20.018316
1784589617.8241,16:20:17.824,7,false,0.648307,-0.346863,0.53241,0.419434,0.998062,0.003418,-0.195804,-27.900423,-55.740025,20.005345
1784589617.8554,16:20:17.855,8,false,0.648366,-0.347107,0.532227,0.419373,0.999527,0.02295,-0.197757,-27.861888,-55.788667,19.978718
1784589617.8868,16:20:17.886,9,false,0.64853,-0.347229,0.532043,0.41925,0.98439,0.009766,-0.201175,-27.797298,-55.57823,19.999614
1784589617.9181,16:20:17.918,10,false,0.648674,-0.347107,0.532043,0.419128,0.991714,0.012696,-0.195315,-27.798983,-55.553328,20.063283
1784589617.9492,16:20:17.949,11,false,0.648677,-0.347534,0.531616,0.419312,0.990249,0.026856,-0.203128,-27.830407,-55.486055,19.986
1784589617.9804,16:20:17.980,12,false,0.648735,-0.347839,0.53125,0.419434,0.994156,0.010742,-0.198245,-27.828781,-55.470371,20.021123
1784589618.0115,16:20:18.011,13,false,0.648778,-0.347778,0.531189,0.419495,0.989273,0.018067,-0.197269,-27.872179,-55.51607,19.992918
1784589618.0427,16:20:18.042,14,false,0.648816,-0.347839,0.531006,0.419617,0.981949,0.009766,-0.211429,-27.836468,-55.5572,20.117071
1784589618.074,16:20:18.074,15,false,0.648911,-0.347717,0.531067,0.419495,0.989273,0.001953,-0.200687,-27.714605,-55.609171,20.094225
1784589618.1053,16:20:18.105,16,false,0.648914,-0.347656,0.531006,0.419617,1.002457,0.015137,-0.189456,-27.829236,-55.581175,19.968987
1784589618.1367,16:20:18.136,17,false,0.648932,-0.347717,0.530945,0.419617,0.999527,0.014649,-0.205081,-27.857634,-55.511117,20.00581
1784589618.168,16:20:18.168,18,false,0.649264,-0.347351,0.531067,0.41925,0.985367,0.017578,-0.198734,-27.972916,-55.283573,19.949229
1784589618.1994,16:20:18.199,19,false,0.649426,-0.34729,0.531006,0.419128,0.996109,0.006836,-0.205081,-27.837408,-55.318045,19.943167
1784589618.2307,16:20:18.230,20,false,0.649526,-0.34729,0.530884,0.419128,1.003922,0.012696,-0.213382,-27.805174,-55.483654,19.967619
1784589618.262,16:20:18.262,21,false,0.64956,-0.347412,0.530762,0.419128,0.989761,0.022461,-0.203616,-27.806071,-55.498118,20.004579
1784589618.2934,16:20:18.293,22,false,0.649711,-0.347351,0.530762,0.418945,0.994644,0.016114,-0.20264,-27.956417,-55.585904,20.067751
1784589618.3245,16:20:18.324,23,false,0.649812,-0.34729,0.530823,0.418762,0.989273,0.01709,-0.209964,-27.972098,-55.635004,20.094699
1784589618.3557,16:20:18.355,24,false,0.649795,-0.347473,0.530579,0.418945,0.985855,0.002441,-0.206546,-27.971256,-55.619379,20.103997
1784589618.3868,16:20:18.386,25,false,0.649845,-0.347473,0.530518,0.418945,0.982437,0.006348,-0.203128,-27.835914,-55.62027,20.157228
1784589618.4179,16:20:18.417,26,false,0.649994,-0.347229,0.53064,0.418762,0.995132,0.016602,-0.194827,-27.80383,-55.680887,20.085504
1784589618.4491,16:20:18.449,27,false,0.649932,-0.34729,0.530579,0.418884,0.991226,0.004395,-0.207523,-27.670277,-55.630766,20.020953
1784589618.4804,16:20:18.480,28,false,0.649989,-0.347351,0.530518,0.418823,0.999039,0.012696,-0.205081,-27.639802,-55.630519,19.947904
1784589618.5117,16:20:18.511,29,false,0.650071,-0.34729,0.530457,0.418823,0.985855,-0.001465,-0.206546,-27.552559,-55.540573,19.792436
1784589618.5431,16:20:18.543,30,false,0.650066,-0.347412,0.530334,0.418884,0.991714,0.008789,-0.197757,-27.74321,-55.60916,19.757192
1784589618.5744,16:20:18.574,31,false,0.650261,-0.347229,0.530457,0.418579,1.00734,0.013184,-0.206546,-27.780211,-55.655934,19.710518
1784589618.6058,16:20:18.605,0,false,0.650344,-0.347107,0.530579,0.418396,1.000015,0.006348,-0.193851,-27.783605,-55.727939,19.698419
1784589618.6371,16:20:18.637,1,false,0.650217,-0.347351,0.530334,0.418701,0.997574,0.003906,-0.203616,-27.667028,-55.717974,19.7623
1784589618.6683,16:20:18.668,2,false,0.65014,-0.347534,0.530212,0.418823,0.983902,0.01709,-0.200687,-27.696694,-55.768821,19.804838
1784589618.6995,16:20:18.699,3,false,0.650096,-0.347656,0.53009,0.418945,1.002457,0.021973,-0.198245,-27.723393,-55.784676,19.843123
1784589618.7306,16:20:18.730,4,false,0.650301,-0.347473,0.530151,0.418701,0.982925,0.009277,-0.204105,-27.672653,-55.798945,19.907487
1784589618.7618,16:20:18.761,5,false,0.650351,-0.347473,0.53009,0.418701,0.979995,0.008789,-0.200687,-27.656894,-55.886556,19.935507
1784589618.7929,16:20:18.792,6,false,0.650739,-0.347168,0.530151,0.418274,1.000504,0.011719,-0.214847,-27.672619,-55.726145,19.975679
1784589618.8242,16:20:18.824,7,false,0.65072,-0.347168,0.530029,0.418457,1.000015,0.018555,-0.206058,-27.656864,-55.776175,19.92211
1784589618.8556,16:20:18.855,8,false,0.650864,-0.347046,0.530029,0.418335,0.980972,0.01709,-0.207034,-27.642685,-55.671664,19.948668
1784589618.8869,16:20:18.886,9,false,0.650897,-0.346985,0.530029,0.418335,0.986343,0.006836,-0.20557,-27.659831,-55.562649,19.987524
1784589618.9183,16:20:18.918,10,false,0.651139,-0.346863,0.529907,0.418213,0.994156,0.026368,-0.209964,-27.8248,-55.464537,20.097263
1784589618.9496,16:20:18.949,11,false,0.651499,-0.346497,0.53009,0.417725,0.991226,0.011231,-0.205081,-27.913458,-55.31642,20.166121
1784589618.9809,16:20:18.980,12,false,0.651553,-0.346375,0.530151,0.417664,0.982437,0.008789,-0.204105,-27.903527,-55.272837,20.183231
1784589619.0121,16:20:19.012,13,false,0.65152,-0.346497,0.529968,0.417847,0.989273,0.018067,-0.204593,-27.849727,-55.308383,20.093953
1784589619.0432,16:20:19.043,14,false,0.651547,-0.346558,0.529846,0.417908,0.990738,0.005859,-0.208499,-27.816261,-55.220743,20.058465
1784589619.0744,16:20:19.074,15,false,0.651519,-0.346558,0.529785,0.41803,0.993179,0.010254,-0.203128,-27.845957,-55.336267,19.936803
1784589619.1055,16:20:19.105,16,false,0.651381,-0.346802,0.529602,0.418274,0.995132,0.021485,-0.200687,-27.872684,-55.335561,19.872168
1784589619.1366,16:20:19.136,17,false,0.651369,-0.346863,0.52948,0.418396,0.996597,0.010742,-0.204593,-27.807014,-55.34988,19.933627
1784589619.1678,16:20:19.167,18,false,0.651475,-0.346924,0.529358,0.418335,1.000992,0.01709,-0.196292,-27.822681,-55.482398,19.809495
1784589619.1989,16:20:19.198,19,false,0.651272,-0.34729,0.529175,0.418579,0.973648,0.018555,-0.197757,-27.866689,-55.601664,19.772545
1784589619.23,16:20:19.230,20,false,0.651256,-0.347412,0.529114,0.418579,0.988296,0.009277,-0.203616,-27.936204,-55.604327,19.754243
1784589619.2614,16:20:19.261,21,false,0.651362,-0.347473,0.528992,0.418518,0.999527,0.027832,-0.211429,-27.879137,-55.502046,19.737772
1784589619.2927,16:20:19.292,22,false,0.651341,-0.347717,0.528809,0.418579,0.991226,0.021485,-0.211917,-27.962361,-55.574486,19.782764
1784589619.3241,16:20:19.324,23,false,0.651657,-0.347473,0.52887,0.418213,0.989273,0.008301,-0.208011,-28.022308,-55.505097,19.793348
1784589619.3552,16:20:19.355,24,false,0.651697,-0.347473,0.52887,0.418152,0.990249,0.016114,-0.200687,-28.016446,-55.472555,19.787921
1784589619.3863,16:20:19.386,25,false,0.651669,-0.347656,0.528687,0.418274,0.994156,0.014649,-0.218753,-28.085939,-55.473175,19.753128
1784589619.4177,16:20:19.417,26,false,0.651602,-0.347839,0.528503,0.418457,0.991226,0.028809,-0.209476,-28.013898,-55.608317,19.632091
1784589619.4488,16:20:19.448,27,false,0.651792,-0.347778,0.528503,0.418213,0.997574,0.011231,-0.205081,-27.874292,-55.729945,19.597928
1784589619.48,16:20:19.480,28,false,0.651708,-0.3479,0.528381,0.418396,0.995132,0.013672,-0.207523,-27.808462,-55.779595,19.656904
1784589619.5111,16:20:19.511,29,false,0.651703,-0.348022,0.528259,0.418457,0.996597,0.018555,-0.207034,-27.749215,-55.82428,19.560443
1784589619.5422,16:20:19.542,30,false,0.651836,-0.3479,0.52832,0.418274,0.994644,0.012696,-0.205081,-27.875339,-55.640189,19.473629
1784589619.5734,16:20:19.573,31,false,0.651856,-0.3479,0.528198,0.418396,0.979019,0.006348,-0.203616,-27.839312,-55.549276,19.365589
1784589619.6045,16:20:19.604,0,false,0.651923,-0.347961,0.528076,0.418396,0.984878,0.016114,-0.207034,-27.941472,-55.557177,19.417891
1784589619.6358,16:20:19.635,1,false,0.651839,-0.348083,0.527954,0.418579,1.005875,0.018555,-0.219242,-27.898831,-55.624104,19.37524
1784589619.6672,16:20:19.667,2,false,0.651885,-0.348145,0.527954,0.418457,0.992203,0.029786,-0.210941,-27.965132,-55.594615,19.396669
1784589619.6985,16:20:19.698,3,false,0.651869,-0.348267,0.527893,0.418457,0.979507,0.025879,-0.190921,-27.950033,-55.523213,19.266417
1784589619.7299,16:20:19.729,4,false,0.651836,-0.348328,0.527893,0.418457,0.989273,0.024414,-0.19971,-27.816814,-55.503813,19.403405
1784589619.761,16:20:19.761,5,false,0.651886,-0.348328,0.527832,0.418457,0.979995,0.012696,-0.197757,-27.831501,-55.471399,19.436972
1784589619.7921,16:20:19.792,6,false,0.652003,-0.348328,0.527832,0.418274,0.986343,0.012207,-0.207034,-27.725088,-55.472135,19.392413
1784589619.8233,16:20:19.823,7,false,0.652331,-0.348022,0.528015,0.417786,0.994644,0.022461,-0.191897,-27.853625,-55.547566,19.576617
1784589619.8544,16:20:19.854,8,false,0.652336,-0.348145,0.527832,0.417908,0.983902,0.029297,-0.211917,-27.894538,-55.510776,19.592862
1784589619.8856,16:20:19.885,9,false,0.652336,-0.348145,0.527832,0.417908,1.002945,0.025879,-0.201175,-27.841637,-55.567389,19.622437
1784589619.9167,16:20:19.916,10,false,0.652304,-0.348389,0.52771,0.417908,0.979995,0.01416,-0.201663,-27.808981,-55.603387,19.738777
1784589619.9478,16:20:19.947,11,false,0.65247,-0.348206,0.527771,0.417725,0.990249,0.014649,-0.203128,-27.884266,-55.471293,19.873391
1784589619.979,16:20:19.979,12,false,0.652643,-0.348267,0.52771,0.41748,0.997086,0.032715,-0.200198,-27.952023,-55.606623,19.949682
1784589620.0103,16:20:20.010,13,false,0.652704,-0.348206,0.527771,0.417358,0.992691,0.017578,-0.207523,-28.013005,-55.534021,19.943575
1784589620.0417,16:20:20.041,14,false,0.652925,-0.348083,0.527771,0.417114,0.986343,0.025391,-0.206546,-27.993119,-55.468679,19.908171
1784589620.073,16:20:20.073,15,false,0.652765,-0.348389,0.527527,0.417419,0.985367,0.010742,-0.20557,-27.975221,-55.559409,19.726768
1784589620.1043,16:20:20.104,16,false,0.652781,-0.34845,0.527466,0.417419,0.996597,0.024903,-0.199222,-27.959114,-55.491528,19.608368
1784589620.1357,16:20:20.135,17,false,0.652627,-0.348816,0.527222,0.417664,0.996109,0.023926,-0.200687,-27.959571,-55.49025,19.516761
1784589620.167,16:20:20.167,18,false,0.652654,-0.348877,0.5271,0.417725,0.986831,0.013184,-0.194339,-27.959982,-55.414331,19.509084
1784589620.1982,16:20:20.198,19,false,0.652631,-0.348938,0.527039,0.417786,0.98146,0.02002,-0.214359,-27.885583,-55.420773,19.397499
1784589620.2294,16:20:20.229,20,false,0.652809,-0.349121,0.526794,0.417664,0.988785,0.009766,-0.208499,-27.878439,-55.516294,19.386794
1784589620.2605,16:20:20.260,21,false,0.652769,-0.349731,0.526245,0.417908,0.982437,0.027344,-0.206546,-27.722471,-55.527494,19.332299
1784589620.2917,16:20:20.291,22,false,0.653271,-0.34967,0.526001,0.41748,0.97023,0.019043,-0.208988,-27.746593,-55.52262,19.343068
1784589620.3228,16:20:20.322,23,false,0.65433,-0.349976,0.525208,0.416565,0.992691,0.028809,-0.213382,-27.798209,-55.488325,19.352761
1784589620.3541,16:20:20.354,24,false,0.655004,-0.350281,0.524841,0.41571,1.009293,0.031739,-0.204593,-27.814757,-55.487368,19.466161
1784589620.3855,16:20:20.385,25,false,0.655686,-0.351074,0.524231,0.414734,0.986831,0.033204,-0.210941,-28.009096,-55.381829,19.463544
1784589620.4168,16:20:20.416,26,false,0.655879,-0.351257,0.524109,0.414429,0.990738,0.030274,-0.210452,-27.929785,-55.391522,19.491097
1784589620.4482,16:20:20.448,27,false,0.656367,-0.352051,0.523254,0.414063,1.003433,0.032715,-0.210452,-28.022898,-55.310522,19.471033
1784589620.4795,16:20:20.479,28,false,0.65684,-0.352539,0.522766,0.413513,0.984878,0.024903,-0.208499,-28.181469,-55.132945,19.452975
1784589620.5106,16:20:20.510,29,false,0.657567,-0.353577,0.521729,0.412781,0.997086,0.03711,-0.209476,-28.249413,-55.182479,19.466631
1784589620.5418,16:20:20.541,30,false,0.658124,-0.35437,0.520874,0.412292,0.986831,0.042481,-0.211429,-28.22084,-55.182199,19.314429
1784589620.5729,16:20:20.572,31,false,0.658852,-0.35498,0.52002,0.411682,0.982925,0.041993,-0.210941,-28.195125,-55.107177,19.401754
1784589620.6041,16:20:20.604,0,false,0.660059,-0.35553,0.518982,0.410583,0.993179,0.047852,-0.216312,-28.112165,-55.084519,19.525209
1784589620.6352,16:20:20.635,1,false,0.660543,-0.355835,0.518494,0.410156,0.999039,0.056641,-0.210941,-28.157132,-55.034219,19.501734
1784589620.6663,16:20:20.666,2,false,0.660992,-0.355957,0.518127,0.40979,0.985367,0.049317,-0.211917,-28.212557,-54.749688,19.450698
1784589620.6977,16:20:20.697,3,false,0.661433,-0.355896,0.517944,0.409363,0.996597,0.072755,-0.218753,-28.187669,-54.643148,19.404766
1784589620.7288,16:20:20.728,4,false,0.66165,-0.355774,0.517944,0.409119,0.985367,0.065919,-0.208011,-28.165271,-54.547263,19.408289
1784589620.7601,16:20:20.760,5,false,0.661657,-0.355957,0.517761,0.40918,0.983902,0.049317,-0.218753,-28.145112,-54.490873,19.486229
1784589620.7915,16:20:20.791,6,false,0.661677,-0.355957,0.517639,0.409302,0.983413,0.056153,-0.226078,-28.037246,-54.395261,19.347021
1784589620.8228,16:20:20.822,7,false,0.661503,-0.356018,0.517578,0.409607,0.986343,0.051759,-0.226078,-28.044844,-54.443795,19.296503
1784589620.8542,16:20:20.854,8,false,0.661228,-0.356018,0.517639,0.409973,0.993179,0.057618,-0.223636,-27.991866,-54.397752,19.385621
1784589620.8855,16:20:20.885,9,false,0.661241,-0.355835,0.5177,0.410034,0.983902,0.050294,-0.210941,-28.018956,-54.251637,19.391058
1784589620.9168,16:20:20.916,10,false,0.661228,-0.355896,0.517578,0.410156,0.994156,0.046387,-0.2168,-27.938659,-54.41921,19.395952
1784589620.9482,16:20:20.948,11,false,0.661256,-0.355896,0.517639,0.410034,0.978531,0.043946,-0.217288,-28.015931,-54.345718,19.534941
1784589620.9793,16:20:20.979,12,false,0.66136,-0.355774,0.517639,0.409973,0.990249,0.041016,-0.217777,-27.965845,-54.234714,19.600215
1784589621.0105,16:20:21.010,13,false,0.661655,-0.355469,0.517761,0.409607,0.989273,0.041993,-0.219242,-27.875905,-54.239487,19.599147
1784589621.0416,16:20:21.041,14,false,0.661675,-0.355591,0.5177,0.409546,0.98732,0.052735,-0.221683,-28.034222,-54.258736,19.478555
1784589621.0727,16:20:21.072,15,false,0.661806,-0.355469,0.517761,0.409363,0.976089,0.051759,-0.215824,-27.967352,-54.141476,19.594329
1784589621.1039,16:20:21.103,16,false,0.66169,-0.355652,0.517639,0.409546,0.990249,0.05713,-0.222171,-27.892216,-54.095758,19.683573
1784589621.1352,16:20:21.135,17,false,0.661967,-0.355469,0.5177,0.40918,0.98439,0.059083,-0.220218,-27.899363,-54.234057,19.689122
1784589621.1666,16:20:21.166,18,false,0.661894,-0.355591,0.517517,0.409424,0.98439,0.041016,-0.221195,-27.920749,-54.373481,19.649256
1784589621.1979,16:20:21.197,19,false,0.661871,-0.355652,0.517456,0.409485,0.990738,0.055665,-0.215335,-28.029719,-54.334469,19.62833
1784589621.2292,16:20:21.229,20,false,0.661967,-0.355469,0.5177,0.40918,0.98732,0.053712,-0.212894,-28.097885,-54.374128,19.564634
1784589621.2606,16:20:21.260,21,false,0.661889,-0.355652,0.517578,0.409302,0.99855,0.060548,-0.223636,-28.084465,-54.409821,19.582078
1784589621.2919,16:20:21.291,22,false,0.66173,-0.355896,0.517517,0.409424,0.99855,0.059083,-0.210452,-28.072387,-54.486807,19.523008
1784589621.3233,16:20:21.323,23,false,0.661763,-0.355835,0.517517,0.409424,0.985855,0.045411,-0.219242,-28.151239,-54.571047,19.60443
1784589621.3544,16:20:21.354,24,false,0.661777,-0.355896,0.517456,0.409424,0.998062,0.053223,-0.208011,-28.147438,-54.422556,19.528171
1784589621.3855,16:20:21.385,25,false,0.661815,-0.355896,0.517456,0.409363,0.99855,0.054688,-0.212894,-28.084201,-54.34873,19.474492
1784589621.4167,16:20:21.416,26,false,0.661671,-0.356201,0.517334,0.409485,0.992691,0.064942,-0.215824,-28.012334,-54.192563,19.30655
1784589621.4478,16:20:21.447,27,false,0.661804,-0.356201,0.517212,0.409424,0.989273,0.056153,-0.211429,-28.007469,-54.141736,19.319894
1784589621.4789,16:20:21.478,28,false,0.661781,-0.356262,0.517151,0.409485,0.986831,0.045899,-0.220706,-28.032998,-54.200668,19.361812
1784589621.5103,16:20:21.510,29,false,0.661857,-0.356262,0.517151,0.409363,0.992691,0.0542,-0.217288,-27.981205,-54.14903,19.294861
1784589621.5416,16:20:21.541,30,false,0.661849,-0.356384,0.517029,0.409424,0.989273,0.054688,-0.211429,-27.934591,-54.252095,19.264513
1784589621.573,16:20:21.573,31,false,0.661709,-0.356628,0.516846,0.409668,0.974624,0.054688,-0.213382,-27.847777,-54.314945,19.147476
1784589621.6043,16:20:21.604,0,false,0.661775,-0.356506,0.516846,0.409668,0.993179,0.059083,-0.212406,-27.694876,-54.162157,19.221589
1784589621.6354,16:20:21.635,1,false,0.661836,-0.356445,0.516907,0.409546,0.988296,0.06006,-0.213382,-27.676895,-54.069509,19.168661
1784589621.6666,16:20:21.666,2,false,0.661916,-0.356384,0.516846,0.409546,0.996109,0.047852,-0.22266,-27.720528,-54.045941,19.210748
1784589621.6979,16:20:21.697,3,false,0.661893,-0.356445,0.516785,0.409607,0.990738,0.056153,-0.209964,-27.834566,-54.099499,19.278534
1784589621.7291,16:20:21.729,4,false,0.662105,-0.356262,0.516785,0.409424,0.988785,0.059571,-0.214359,-27.922247,-54.132747,19.399357
1784589621.7602,16:20:21.760,5,false,0.662344,-0.356079,0.516846,0.409119,0.974136,0.056641,-0.216312,-27.911437,-54.177625,19.343605
1784589621.7913,16:20:21.791,6,false,0.662415,-0.356018,0.516846,0.409058,0.999039,0.059571,-0.227543,-27.8718,-54.128291,19.383152
1784589621.8225,16:20:21.822,7,false,0.662606,-0.355835,0.516968,0.408752,0.982925,0.055665,-0.209476,-27.866035,-54.143707,19.433697
1784589621.8536,16:20:21.853,8,false,0.662546,-0.355896,0.516907,0.408875,0.990249,0.048829,-0.218265,-27.860846,-54.262257,19.374512
1784589621.8849,16:20:21.884,9,false,0.662454,-0.35614,0.516663,0.409119,0.984878,0.067384,-0.224613,-27.856176,-54.264276,19.366106
1784589621.9163,16:20:21.916,10,false,0.662567,-0.35614,0.516663,0.408936,0.981949,0.058106,-0.222171,-27.866926,-54.310954,19.373495
1784589621.9476,16:20:21.947,11,false,0.662592,-0.356201,0.516541,0.408997,0.989761,0.058595,-0.219242,-28.026141,-54.352965,19.305376
1784589621.979,16:20:21.979,12,false,0.662514,-0.356384,0.516418,0.409119,1.000992,0.054688,-0.222171,-28.004941,-54.405728,19.229114
1784589622.0103,16:20:22.010,13,false,0.662445,-0.356567,0.516235,0.409302,0.98732,0.050294,-0.223148,-28.1354,-54.423308,19.010941
1784589622.0416,16:20:22.041,14,false,0.662371,-0.356812,0.516113,0.409363,0.997086,0.055665,-0.209964,-27.923828,-54.454083,19.053846
1784589622.073,16:20:22.073,15,false,0.662292,-0.356995,0.515991,0.409485,1.002945,0.054688,-0.221195,-27.91286,-54.392057,19.002738
1784589622.1041,16:20:22.104,16,false,0.662377,-0.356995,0.51593,0.409424,0.994156,0.063478,-0.212894,-27.977758,-54.336235,19.03151
1784589622.1353,16:20:22.135,17,false,0.662449,-0.357178,0.515808,0.409302,0.98146,0.05713,-0.226566,-27.931489,-54.27104,19.072358
1784589622.1664,16:20:22.166,18,false,0.662534,-0.357178,0.515747,0.409241,0.987808,0.058595,-0.219242,-27.919754,-54.197411,19.124075
1784589622.1975,16:20:22.197,19,false,0.662614,-0.357239,0.515747,0.409058,0.984878,0.055665,-0.227054,-28.133501,-54.235822,19.095852
1784589622.2287,16:20:22.228,20,false,0.662652,-0.357239,0.515747,0.408997,0.989761,0.051759,-0.214847,-28.071658,-54.255438,19.205035
1784589622.26,16:20:22.260,21,false,0.662904,-0.356995,0.51593,0.408569,0.997574,0.067872,-0.217777,-28.075814,-54.213278,19.318254
1784589622.2914,16:20:22.291,22,false,0.662952,-0.356995,0.515869,0.408569,0.99855,0.05127,-0.219242,-28.124417,-54.250102,19.165936
1784589622.3227,16:20:22.322,23,false,0.662886,-0.357117,0.515869,0.408569,0.991714,0.063966,-0.214847,-28.093389,-54.178567,19.178388
1784589622.354,16:20:22.354,24,false,0.662901,-0.357178,0.515808,0.408569,0.999527,0.058595,-0.210452,-28.155188,-54.159047,19.159687
1784589622.3854,16:20:22.385,25,false,0.663059,-0.357056,0.51593,0.408264,0.987808,0.053223,-0.219242,-28.225761,-53.902218,19.202672
1784589622.4167,16:20:22.416,26,false,0.663195,-0.356873,0.51593,0.408203,1.011734,0.042969,-0.212894,-28.274322,-53.955194,19.40585
1784589622.4481,16:20:22.448,27,false,0.66314,-0.356995,0.515869,0.408264,0.997574,0.054688,-0.218753,-28.258212,-53.987919,19.319541
1784589622.4792,16:20:22.479,28,false,0.663055,-0.356995,0.51593,0.408325,0.98146,0.043946,-0.220218,-28.288575,-53.942603,19.34654
1784589622.5103,16:20:22.510,29,false,0.663032,-0.357056,0.515869,0.408386,0.984878,0.049317,-0.210941,-28.330855,-53.946679,19.281116
1784589622.5415,16:20:22.541,30,false,0.663046,-0.357117,0.515808,0.408386,0.986831,0.061524,-0.214359,-28.428722,-53.935394,19.28205
1784589622.5726,16:20:22.572,31,false,0.663005,-0.3573,0.515686,0.408447,0.986343,0.061524,-0.212894,-28.292495,-54.000007,19.312799
1784589622.6039,16:20:22.603,0,false,0.663103,-0.357239,0.515747,0.408264,0.986831,0.059571,-0.211917,-28.289522,-53.923574,19.355426
1784589622.6353,16:20:22.635,1,false,0.663141,-0.357239,0.515747,0.408203,0.983413,0.062989,-0.218753,-28.331707,-53.899645,19.39379
1784589622.6666,16:20:22.666,2,false,0.663381,-0.3573,0.515686,0.407837,0.990249,0.064942,-0.211429,-28.309859,-53.713618,19.383457
1784589622.698,16:20:22.698,3,false,0.663774,-0.357544,0.515686,0.406982,0.989273,0.07129,-0.217288,-28.290195,-53.725639,19.553603
1784589622.7293,16:20:22.729,4,false,0.663943,-0.358459,0.515747,0.405823,1.005875,0.055177,-0.213382,-28.257544,-53.871042,19.542242
1784589622.7606,16:20:22.760,5,false,0.66397,-0.358948,0.515564,0.405579,0.985367,0.054688,-0.220218,-28.362742,-53.792552,19.397433
1784589622.792,16:20:22.792,6,false,0.664211,-0.360352,0.515137,0.40448,0.99855,0.06006,-0.208499,-28.322836,-53.856495,19.401689
1784589622.8233,16:20:22.823,7,false,0.664559,-0.361328,0.514771,0.403503,0.988296,0.076173,-0.201175,-28.346737,-53.749552,19.390565
1784589622.8545,16:20:22.854,8,false,0.664878,-0.363159,0.513977,0.402344,0.989761,0.08838,-0.209964,-28.293477,-53.757979,19.44037
1784589622.8856,16:20:22.885,9,false,0.664997,-0.364563,0.513306,0.401733,0.984878,0.091798,-0.19971,-28.469852,-53.840334,19.455286
1784589622.9167,16:20:22.916,10,false,0.664992,-0.365967,0.512695,0.401245,0.991226,0.069337,-0.208988,-28.434189,-53.764914,19.393941
1784589622.9481,16:20:22.948,11,false,0.665125,-0.367615,0.511963,0.400452,1.010758,0.086915,-0.217777,-28.372184,-53.741898,19.383593
1784589622.9792,16:20:22.979,12,false,0.665118,-0.368591,0.511414,0.400269,1.00734,0.085451,-0.21387,-28.406104,-53.766045,19.419141
1784589623.0104,16:20:23.010,13,false,0.665381,-0.369202,0.511108,0.399658,0.979507,0.08838,-0.21387,-28.496446,-53.698054,19.43618
1784589623.0417,16:20:23.041,14,false,0.665877,-0.369934,0.510742,0.398621,0.971206,0.083497,-0.208988,-28.592708,-53.547139,19.287023
1784589623.073,16:20:23.073,15,false,0.666499,-0.370239,0.510376,0.397766,0.974136,0.076173,-0.209476,-28.559713,-53.411316,19.257458
1784589623.1044,16:20:23.104,16,false,0.667714,-0.370789,0.509338,0.396545,0.978042,0.104982,-0.213382,-28.664603,-53.274121,19.395343
1784589623.1355,16:20:23.135,17,false,0.668121,-0.371155,0.508728,0.396301,0.989273,0.09424,-0.216312,-28.773957,-53.090831,19.474577
1784589623.1667,16:20:23.166,18,false,0.668213,-0.371277,0.508423,0.396423,1.000992,0.096681,-0.205081,-28.767699,-53.000638,19.366442
1784589623.1978,16:20:23.197,19,false,0.668022,-0.371582,0.508118,0.396851,0.989761,0.090333,-0.22266,-28.672343,-52.934419,19.388751
1784589623.2289,16:20:23.228,20,false,0.668139,-0.371704,0.507874,0.396851,0.973648,0.090333,-0.226566,-28.661293,-52.874821,19.438737
1784589623.2601,16:20:23.260,21,false,0.668504,-0.372131,0.50708,0.396851,0.989273,0.083009,-0.21973,-28.666301,-52.701553,19.394001
1784589623.2912,16:20:23.291,22,false,0.668684,-0.372253,0.506897,0.396667,0.987808,0.091798,-0.225101,-28.655855,-52.710104,19.413554
1784589623.3223,16:20:23.322,23,false,0.669439,-0.372375,0.506287,0.396057,0.994156,0.097169,-0.20557,-28.721222,-52.747707,19.431152
1784589623.3535,16:20:23.353,24,false,0.670018,-0.372131,0.506226,0.395386,0.980484,0.10547,-0.204593,-28.750145,-52.661919,19.357267
1784589623.3846,16:20:23.384,25,false,0.670828,-0.371643,0.506226,0.39447,0.98146,0.130373,-0.217777,-28.551868,-52.58471,19.395447
1784589623.416,16:20:23.416,26,false,0.671245,-0.371399,0.506042,0.394226,0.982437,0.121096,-0.214359,-28.448188,-52.619899,19.35504
1784589623.4473,16:20:23.447,27,false,0.671825,-0.371155,0.505737,0.39386,0.975113,0.132815,-0.223636,-28.609092,-52.442215,19.348582
1784589623.4786,16:20:23.478,28,false,0.672214,-0.371216,0.505127,0.393921,0.979507,0.126467,-0.219242,-28.529597,-52.2823,19.372677
1784589623.51,16:20:23.510,29,false,0.672425,-0.370972,0.504883,0.394104,0.985367,0.097169,-0.222171,-28.547775,-52.123422,19.304639
1784589623.5413,16:20:23.541,30,false,0.672318,-0.370544,0.505005,0.394531,0.977554,0.118654,-0.222171,-28.668812,-52.129971,19.273313
1784589623.5727,16:20:23.572,31,false,0.672013,-0.369873,0.505188,0.395447,0.984878,0.109377,-0.228519,-28.553437,-52.135864,19.289981
1784589623.6038,16:20:23.603,0,false,0.671868,-0.369446,0.50531,0.395935,0.981949,0.104005,-0.230472,-28.554277,-52.081353,19.245167
1784589623.6349,16:20:23.634,1,false,0.671716,-0.36908,0.505493,0.396301,0.988785,0.084962,-0.226566,-28.34568,-52.092109,19.26465
1784589623.6661,16:20:23.666,2,false,0.671666,-0.368835,0.505737,0.396301,0.993668,0.079103,-0.218265,-28.322434,-52.086835,19.297138
1784589623.6972,16:20:23.697,3,false,0.671681,-0.368896,0.506104,0.395752,0.997574,0.090333,-0.218753,-28.196836,-52.156857,19.29647
1784589623.7284,16:20:23.728,4,false,0.672003,-0.369385,0.506226,0.394592,0.986343,0.104005,-0.21973,-28.352967,-52.130154,19.385592
1784589623.7595,16:20:23.759,5,false,0.673002,-0.370667,0.505432,0.3927,0.963882,0.104005,-0.214359,-28.418715,-52.031353,19.465801
1784589623.7908,16:20:23.790,6,false,0.673978,-0.371338,0.504395,0.391724,0.988296,0.122072,-0.217288,-28.462935,-52.062062,19.448266
1784589623.8222,16:20:23.822,7,false,0.67438,-0.37207,0.503601,0.391357,1.010758,0.13135,-0.220218,-28.562548,-52.044839,19.522208
1784589623.8535,16:20:23.853,8,false,0.674028,-0.373047,0.503113,0.391663,0.960952,0.125978,-0.218753,-28.637246,-52.044292,19.454172
1784589623.8848,16:20:23.884,9,false,0.673747,-0.374146,0.502197,0.392273,0.957046,0.137209,-0.224613,-28.719429,-51.983984,19.377985
1784589623.916,16:20:23.916,10,false,0.673155,-0.376587,0.49939,0.394531,0.974136,0.12842,-0.230961,-28.673762,-51.929707,19.234647
1784589623.9471,16:20:23.947,11,false,0.672496,-0.377441,0.497986,0.396606,0.972183,0.087892,-0.229984,-28.5878,-52.04535,19.374813
1784589623.9783,16:20:23.978,12,false,0.671621,-0.377441,0.497314,0.398926,0.996109,0.082033,-0.252934,-28.585204,-52.07466,19.186931
1784589624.0094,16:20:24.009,13,false,0.669848,-0.377258,0.497437,0.401917,0.995132,0.061036,-0.231449,-28.627729,-52.056177,19.10756
1784589624.0405,16:20:24.040,14,false,0.66903,-0.377625,0.497864,0.402405,0.989273,0.062989,-0.237797,-28.62114,-51.87505,18.976311
1784589624.0717,16:20:24.071,15,false,0.668736,-0.37854,0.498352,0.401428,0.987808,0.08838,-0.219242,-28.615209,-51.921389,18.858187
1784589624.1028,16:20:24.102,16,false,0.669189,-0.380859,0.498718,0.39801,0.992203,0.119142,-0.205081,-28.624826,-51.798603,18.871506
1784589624.1342,16:20:24.134,17,false,0.669494,-0.382813,0.498901,0.395386,0.995621,0.123049,-0.197269,-28.633481,-51.658187,18.778817
1784589624.1655,16:20:24.165,18,false,0.669507,-0.386902,0.498474,0.391907,0.980972,0.165042,-0.195804,-28.64127,-51.63649,18.695396
1784589624.1968,16:20:24.196,19,false,0.669564,-0.388306,0.498169,0.390808,0.981949,0.15967,-0.184573,-28.603419,-51.616962,18.90444
1784589624.2282,16:20:24.228,20,false,0.670216,-0.391418,0.497192,0.387817,0.985367,0.167483,-0.192386,-28.688984,-51.345172,18.913134
1784589624.2595,16:20:24.259,21,false,0.670674,-0.3927,0.496704,0.386353,0.971206,0.186038,-0.187015,-28.825808,-51.190284,18.876097
1784589624.2909,16:20:24.290,22,false,0.671061,-0.394714,0.495483,0.385193,0.970718,0.177249,-0.174319,-28.844272,-51.1107,18.82781
1784589624.3222,16:20:24.322,23,false,0.671384,-0.396118,0.494446,0.384521,0.972671,0.155276,-0.194827,-28.845937,-50.979259,18.874074
1784589624.3534,16:20:24.353,24,false,0.671875,-0.397095,0.493469,0.383911,0.977066,0.177249,-0.19678,-28.847434,-50.905824,18.94562
1784589624.3846,16:20:24.384,25,false,0.672764,-0.398071,0.491943,0.383301,0.972671,0.174807,-0.204105,-28.788967,-50.809825,18.950196
1784589624.4157,16:20:24.415,26,false,0.673194,-0.398926,0.490662,0.383301,0.969253,0.174807,-0.208011,-28.841023,-50.603795,18.909453
1784589624.4469,16:20:24.446,27,false,0.673802,-0.399414,0.48938,0.383362,0.979995,0.176272,-0.215335,-28.917781,-50.373506,18.872784
1784589624.478,16:20:24.478,28,false,0.674112,-0.399841,0.48822,0.38385,0.994156,0.156252,-0.240238,-28.912095,-50.166246,18.914551
1784589624.5091,16:20:24.509,29,false,0.673658,-0.399902,0.48822,0.384583,0.986831,0.157717,-0.212406,-29.026607,-50.099343,18.952141
1784589624.5405,16:20:24.540,30,false,0.673187,-0.400391,0.488037,0.385132,0.976577,0.156741,-0.222171,-28.950223,-50.054084,18.851388
1784589624.5718,16:20:24.571,31,false,0.673285,-0.400391,0.487854,0.385193,0.972183,0.173831,-0.223636,-29.060923,-50.073166,18.775664
1784589624.6031,16:20:24.603,0,false,0.673664,-0.400269,0.487671,0.384888,0.972671,0.173831,-0.227543,-29.085783,-50.090341,18.707513
1784589624.6345,16:20:24.634,1,false,0.674242,-0.399536,0.488098,0.384094,0.996109,0.163577,-0.223148,-28.988527,-49.986166,18.691038
1784589624.6656,16:20:24.665,2,false,0.674719,-0.398682,0.488953,0.383057,0.979019,0.16846,-0.237308,-28.975766,-49.937271,18.810795
1784589624.6968,16:20:24.696,3,false,0.67503,-0.3974,0.490662,0.381653,0.985855,0.166506,-0.239261,-28.904465,-49.90822,18.724176
1784589624.7279,16:20:24.727,4,false,0.67509,-0.396912,0.491211,0.381348,0.981949,0.160647,-0.214847,-28.795433,-49.79235,18.631266
1784589624.759,16:20:24.759,5,false,0.675449,-0.395386,0.492798,0.380249,0.980484,0.147463,-0.213382,-28.846843,-49.762836,18.547646
1784589624.7902,16:20:24.790,6,false,0.676065,-0.394226,0.493774,0.379089,0.976089,0.16553,-0.192386,-28.982835,-49.60169,18.532204
1784589624.8213,16:20:24.821,7,false,0.677439,-0.392029,0.494995,0.377319,0.987808,0.15967,-0.21387,-28.970642,-49.546381,18.488399
1784589624.8525,16:20:24.852,8,false,0.678136,-0.390503,0.49585,0.376526,1.019059,0.171878,-0.217288,-28.944716,-49.451741,18.478881
1784589624.8836,16:20:24.883,9,false,0.678378,-0.388489,0.497192,0.376404,0.969741,0.143557,-0.214359,-29.07092,-49.650689,18.530131
1784589624.9149,16:20:24.914,10,false,0.678952,-0.386169,0.498352,0.376221,0.981949,0.1626,-0.21973,-29.184504,-49.725064,18.51644
1784589624.9463,16:20:24.946,11,false,0.679251,-0.385132,0.49884,0.376099,0.9673,0.135256,-0.218753,-29.226914,-49.806956,18.474211
1784589624.9776,16:20:24.977,12,false,0.679782,-0.384216,0.499329,0.375427,0.974136,0.138186,-0.215335,-29.115545,-49.731121,18.436205
1784589625.009,16:20:25.009,13,false,0.680377,-0.383301,0.499817,0.374634,0.980484,0.148928,-0.210452,-29.015313,-49.842315,18.401999
1784589625.0403,16:20:25.040,14,false,0.6808,-0.382568,0.500305,0.373962,0.979019,0.159182,-0.213382,-29.074642,-49.882574,18.520753
1784589625.0716,16:20:25.071,15,false,0.681293,-0.381165,0.501343,0.373108,0.988296,0.153811,-0.204593,-29.187854,-49.858992,18.508
1784589625.103,16:20:25.103,16,false,0.681373,-0.380676,0.501831,0.372803,0.983413,0.157229,-0.208988,-29.214975,-49.837768,18.675968
1784589625.1341,16:20:25.134,17,false,0.681823,-0.378845,0.503418,0.371704,0.984878,0.143557,-0.212406,-29.164615,-49.743897,18.707509
1784589625.1652,16:20:25.165,18,false,0.681955,-0.377808,0.504333,0.371277,0.982437,0.147951,-0.210941,-29.149199,-49.808952,18.705989
1784589625.1964,16:20:25.196,19,false,0.68209,-0.376709,0.505554,0.370483,0.976577,0.144045,-0.203128,-29.030647,-49.972178,18.70462
1784589625.2275,16:20:25.227,20,false,0.682283,-0.376282,0.506104,0.369812,0.995132,0.137209,-0.207034,-29.028628,-49.939636,18.852927
1784589625.2587,16:20:25.258,21,false,0.68242,-0.376282,0.506409,0.369141,0.989273,0.149905,-0.19971,-28.922134,-50.015025,18.836864
1784589625.29,16:20:25.290,22,false,0.682749,-0.376343,0.506897,0.367798,0.978531,0.162112,-0.186526,-28.975827,-50.082874,18.852316
1784589625.3213,16:20:25.321,23,false,0.682809,-0.37677,0.506897,0.367249,0.986343,0.171878,-0.189944,-29.039105,-50.128985,18.82136
1784589625.3527,16:20:25.352,24,false,0.682489,-0.37738,0.506653,0.367554,0.995132,0.166995,-0.197757,-28.946517,-50.095716,18.928085
1784589625.384,16:20:25.384,25,false,0.682324,-0.377747,0.50647,0.367737,0.96437,0.15967,-0.195315,-28.803372,-50.05082,19.083953
1784589625.4154,16:20:25.415,26,false,0.682036,-0.378296,0.506226,0.368042,1.029313,0.152346,-0.206058,-28.853987,-49.950598,19.134511
1784589625.4467,16:20:25.446,27,false,0.680907,-0.3797,0.505493,0.36969,0.977066,0.149416,-0.210452,-28.929449,-49.980029,19.150105
