Timestamp,Local time,Counter,Interpolated,Accelerometer X,Accelerometer Y,Accelerometer Z,Magnetometer X,Magnetometer Y,Magnetometer Z,Quaternion 0,Quaternion 1,Quaternion 2,Quaternion 3
1784585388.4742,15:09:48.474,16,false,0.630603,-0.372192,0.612244,0.298279,0.928237,0.002441,0.032715,-30.582724,-55.660912,33.849376
1784585388.5055,15:09:48.505,17,false,0.6415,-0.380127,0.598755,0.292358,1.140154,0.067384,-0.050294,-30.694666,-55.283804,33.365484
1784585388.5369,15:09:48.536,18,false,0.647798,-0.385071,0.590088,0.289612,1.137224,0.136233,-0.051759,-30.690737,-54.899545,32.825304
1784585388.5682,15:09:48.568,19,false,0.649319,-0.383179,0.588684,0.291565,1.094255,0.178714,-0.08838,-30.851693,-54.538758,32.398957
1784585388.5996,15:09:48.599,20,false,0.646278,-0.382507,0.590088,0.296326,1.048356,0.155764,-0.081056,-30.996553,-54.21405,32.045153
1784585388.6307,15:09:48.630,21,false,0.641742,-0.383911,0.591248,0.302002,0.922377,0.132326,-0.014649,-30.962435,-53.861997,31.861313
1784585388.6618,15:09:48.661,22,false,0.640612,-0.388489,0.588318,0.30426,0.994644,0.127443,0.007813,-30.931729,-53.619919,31.47155
1784585388.693,15:09:48.693,23,false,0.639364,-0.392639,0.584717,0.308472,1.047868,0.141604,0.015625,-30.993817,-53.387095,31.075902
1784585388.7241,15:09:48.724,24,false,0.636408,-0.394775,0.58136,0.318054,0.963394,0.110353,-0.03711,-31.109511,-53.162599,30.76468
1784585388.7554,15:09:48.755,25,false,0.635404,-0.394897,0.579102,0.323975,0.960952,0.058595,-0.0542,-31.183728,-53.050276,30.36495
1784585388.7868,15:09:48.786,26,false,0.636,-0.39563,0.576294,0.326904,1.040543,0.041505,-0.065431,-31.42997,-52.934231,30.020146
1784585388.8181,15:09:48.818,27,false,0.636053,-0.394775,0.575745,0.328796,1.024918,0.125002,-0.035645,-31.442233,-52.769976,29.769639
1784585388.8495,15:09:48.849,28,false,0.635378,-0.393799,0.576599,0.329773,1.02443,0.167971,-0.029786,-31.393455,-52.711869,29.514274
1784585388.8808,15:09:48.880,29,false,0.634528,-0.39209,0.577087,0.332581,0.966323,0.180667,-0.014649,-31.439278,-52.749296,29.314353
1784585388.9119,15:09:48.911,30,false,0.634722,-0.392151,0.576233,0.333618,0.982437,0.12549,-0.037598,-31.465565,-52.663349,29.074609
1784585388.9431,15:09:48.943,31,false,0.634698,-0.391907,0.573608,0.33844,1.03859,0.099123,-0.048341,-31.339684,-52.541136,28.85884
1784585388.9742,15:09:48.974,0,false,0.633115,-0.390808,0.573059,0.343567,1.047868,0.098634,-0.050294,-31.360976,-52.595636,28.545017
1784585389.0053,15:09:49.005,1,false,0.628808,-0.388489,0.573853,0.352661,0.99855,0.092287,-0.042481,-31.245555,-52.65964,28.382206
1784585389.0365,15:09:49.036,2,false,0.625421,-0.387634,0.574158,0.35907,0.958999,0.107424,-0.030274,-31.051952,-52.881736,28.071185
1784585389.0676,15:09:49.067,3,false,0.622358,-0.388184,0.573303,0.365112,0.983413,0.115724,-0.02295,-30.967433,-52.887222,27.955758
1784585389.0988,15:09:49.098,4,false,0.616639,-0.390381,0.571045,0.375854,1.034195,0.087404,-0.049805,-30.906319,-52.907113,27.612612
1784585389.1299,15:09:49.129,5,false,0.611536,-0.390198,0.570435,0.385193,1.028336,0.070314,-0.041993,-30.74664,-52.925016,27.483227
1784585389.1612,15:09:49.161,6,false,0.605743,-0.388062,0.570251,0.396606,0.972671,0.015625,-0.049317,-30.573022,-53.225251,27.172381
1784585389.1926,15:09:49.192,7,false,0.598904,-0.384094,0.568237,0.413391,0.907729,-0.073732,-0.062501,-30.446672,-53.360878,27.027203
1784585389.2239,15:09:49.223,8,false,0.598879,-0.384399,0.562927,0.420349,0.932631,-0.130861,-0.088869,-30.347912,-53.617527,26.627374
1784585389.2553,15:09:49.255,9,false,0.602516,-0.386658,0.553711,0.425293,1.067887,-0.134279,-0.135744,-30.169304,-53.968142,26.252575
1784585389.2866,15:09:49.286,10,false,0.603144,-0.386719,0.552185,0.426331,1.107439,-0.060548,-0.160647,-30.053419,-53.969664,25.750763
1784585389.3179,15:09:49.317,11,false,0.602437,-0.38208,0.552917,0.430542,1.032242,-0.001953,-0.160647,-29.844446,-53.971035,25.299132
1784585389.3491,15:09:49.349,12,false,0.601077,-0.375366,0.556885,0.433228,0.926772,-0.063966,-0.109865,-29.671323,-54.13676,24.937526
1784585389.3802,15:09:49.380,13,false,0.603094,-0.37439,0.556641,0.43158,0.959487,-0.083009,-0.105959,-29.515513,-54.330775,24.552265
1784585389.4113,15:09:49.411,14,false,0.607039,-0.374329,0.554749,0.428528,1.045426,-0.025879,-0.121096,-29.420146,-54.430619,24.265345
1784585389.4425,15:09:49.442,15,false,0.607887,-0.373962,0.554443,0.42804,1.049821,0.034668,-0.158694,-29.229638,-54.610201,24.037026
1784585389.4736,15:09:49.473,16,false,0.608232,-0.371033,0.55542,0.428833,1.017594,0.026856,-0.125978,-29.103042,-54.622287,23.652092
1784585389.5048,15:09:49.504,17,false,0.607158,-0.36792,0.557434,0.43042,0.968276,-0.012207,-0.119142,-28.914337,-54.558395,23.619682
1784585389.5361,15:09:49.536,18,false,0.607274,-0.367615,0.557556,0.430359,0.968276,-0.081056,-0.100099,-28.879087,-54.740154,23.426021
1784585389.5674,15:09:49.567,19,false,0.607742,-0.368103,0.557007,0.429993,1.028824,-0.066896,-0.103517,-28.712778,-54.858875,23.162002
1784585389.5988,15:09:49.598,20,false,0.607889,-0.367554,0.557068,0.430176,1.030289,-0.030274,-0.110353,-28.667776,-54.965724,22.999155
1784585389.6301,15:09:49.630,21,false,0.606946,-0.365112,0.558472,0.431763,0.965835,-0.02002,-0.12256,-28.522598,-54.942258,22.822685
1784585389.6614,15:09:49.661,22,false,0.606502,-0.362976,0.559448,0.432922,0.968765,-0.061524,-0.103029,-28.242398,-55.115538,22.619001
1784585389.6928,15:09:49.692,23,false,0.607946,-0.362915,0.558533,0.432129,1.008316,-0.085939,-0.113771,-28.124804,-55.166813,22.4955
1784585389.7241,15:09:49.724,24,false,0.610212,-0.363403,0.557251,0.430176,1.021988,-0.051759,-0.131838,-28.108692,-55.317638,22.444165
1784585389.7553,15:09:49.755,25,false,0.610634,-0.362305,0.557739,0.429871,1.027848,-0.023438,-0.136721,-28.154006,-55.348703,22.338148
1784585389.7864,15:09:49.786,26,false,0.610026,-0.358521,0.559998,0.430969,0.998062,-0.008301,-0.126955,-28.015343,-55.481339,22.227778
1784585389.8175,15:09:49.817,27,false,0.609879,-0.357544,0.560547,0.431274,0.963882,-0.069337,-0.107912,-28.010177,-55.451172,21.978908
1784585389.8487,15:09:49.848,28,false,0.611386,-0.3573,0.559998,0.430054,1.013687,-0.084962,-0.139162,-28.005528,-55.678238,21.829693
1784585389.8798,15:09:49.879,29,false,0.612427,-0.356934,0.559937,0.428955,1.028336,-0.062501,-0.133303,-28.001344,-55.77792,21.6954
1784585389.9111,15:09:49.911,30,false,0.612937,-0.355164,0.561157,0.428101,1.01857,-0.035157,-0.13135,-27.877947,-55.718095,21.604444
1784585389.9425,15:09:49.942,31,false,0.612595,-0.353455,0.562561,0.428162,0.973159,-0.025879,-0.123049,-27.751936,-55.709115,21.612307
1784585389.9738,15:09:49.973,0,false,0.612615,-0.352478,0.563477,0.427734,0.997086,-0.045899,-0.121584,-27.638526,-55.850571,21.664244
1784585390.0052,15:09:50.005,1,false,0.613157,-0.35199,0.564209,0.426392,1.005386,-0.053223,-0.11133,-27.730857,-55.828343,21.606312
1784585390.0363,15:09:50.036,2,false,0.613532,-0.351685,0.564636,0.425537,1.000992,-0.054688,-0.121096,-27.739186,-55.853199,21.509311
1784585390.0676,15:09:50.067,3,false,0.613854,-0.350708,0.565491,0.424744,0.99855,-0.045411,-0.127443,-27.642005,-55.965293,21.511733
1784585390.099,15:09:50.099,4,false,0.614059,-0.349609,0.566406,0.424133,1.020523,-0.045899,-0.112795,-27.554542,-56.036269,21.513913
1784585390.1301,15:09:50.130,5,false,0.614009,-0.348083,0.567627,0.423828,1.024918,-0.03711,-0.116701,-27.655272,-55.965564,21.471013
1784585390.1613,15:09:50.161,6,false,0.61347,-0.34491,0.569824,0.424255,0.991226,-0.044434,-0.102052,-27.641251,-56.14119,21.402496
1784585390.1924,15:09:50.192,7,false,0.613381,-0.34259,0.571045,0.424622,0.973159,-0.049805,-0.106447,-27.53891,-56.2843,21.505322
1784585390.2235,15:09:50.223,8,false,0.613888,-0.340149,0.571777,0.424866,0.986343,-0.07715,-0.110842,-27.386987,-56.278515,21.657682
1784585390.2547,15:09:50.254,9,false,0.615161,-0.336548,0.572449,0.424988,1.004898,-0.075685,-0.118166,-27.384842,-56.407892,21.555544
1784585390.286,15:09:50.286,10,false,0.616073,-0.334351,0.572937,0.424744,0.997574,-0.075685,-0.135744,-27.367957,-56.434609,21.418758
1784585390.3173,15:09:50.317,11,false,0.61671,-0.33136,0.573853,0.424927,1.006363,-0.062989,-0.131838,-27.412575,-56.428746,21.340512
1784585390.3487,15:09:50.348,12,false,0.616581,-0.330627,0.574097,0.425354,1.003433,-0.058106,-0.134279,-27.467686,-56.632824,21.285045
1784585390.38,15:09:50.380,13,false,0.615618,-0.328491,0.574951,0.427246,1.011734,-0.073243,-0.121096,-27.278025,-56.861355,21.265032
1784585390.4114,15:09:50.411,14,false,0.614299,-0.326782,0.575562,0.429626,1.00148,-0.061036,-0.127443,-27.271821,-57.022171,21.366651
1784585390.4426,15:09:50.442,15,false,0.611084,-0.32373,0.577087,0.434448,1.013687,-0.095705,-0.132326,-27.176515,-57.151952,21.293616
1784585390.4737,15:09:50.473,16,false,0.608708,-0.322266,0.577881,0.437805,0.971206,-0.13135,-0.122072,-26.986063,-57.313617,21.212931
1784585390.5049,15:09:50.504,17,false,0.606761,-0.321228,0.578186,0.440857,0.975601,-0.132815,-0.140139,-26.919333,-57.593699,21.080499
1784585390.536,15:09:50.536,18,false,0.604698,-0.321228,0.577637,0.444397,0.985367,-0.116213,-0.12256,-26.874229,-57.63642,21.200571
1784585390.5671,15:09:50.567,19,false,0.603748,-0.322632,0.576294,0.446411,0.992203,-0.124514,-0.140139,-26.773821,-57.734684,21.32359
1784585390.5983,15:09:50.598,20,false,0.602988,-0.324219,0.574585,0.448486,1.012711,-0.126467,-0.138674,-26.683453,-57.89789,21.509077
1784585390.6294,15:09:50.629,21,false,0.600891,-0.32605,0.572632,0.452454,1.013199,-0.134279,-0.131838,-26.587169,-58.1345,21.436753
1784585390.6606,15:09:50.660,22,false,0.599105,-0.326477,0.572083,0.4552,0.999527,-0.158206,-0.143069,-26.485559,-58.287632,21.3268
1784585390.6919,15:09:50.691,23,false,0.596839,-0.326294,0.571777,0.458679,0.990249,-0.166995,-0.138674,-26.424018,-58.350683,21.182981
1784585390.7232,15:09:50.723,24,false,0.596291,-0.32605,0.571899,0.459412,0.982925,-0.18262,-0.153811,-26.308815,-58.392474,21.083452
1784585390.7546,15:09:50.754,25,false,0.595747,-0.324402,0.573059,0.459839,0.987808,-0.233402,-0.145022,-26.130363,-58.474948,21.173321
1784585390.7859,15:09:50.785,26,false,0.597942,-0.321411,0.575623,0.455872,1.011734,-0.186038,-0.155276,-26.179111,-58.459451,21.014942
1784585390.817,15:09:50.817,27,false,0.600038,-0.319946,0.578003,0.451111,1.010758,-0.149905,-0.142092,-26.088399,-58.415597,21.036893
1784585390.8484,15:09:50.848,28,false,0.602449,-0.31842,0.582458,0.443176,1.008316,-0.158694,-0.150881,-26.201158,-58.600435,21.011788
1784585390.8795,15:09:50.879,29,false,0.603114,-0.317871,0.58429,0.440247,1.017594,-0.132815,-0.151858,-26.25778,-58.617251,20.989193
1784585390.9107,15:09:50.910,30,false,0.603643,-0.3172,0.591431,0.430359,1.047379,-0.083497,-0.127932,-26.293786,-58.617432,21.058581
1784585390.9418,15:09:50.941,31,false,0.602086,-0.31781,0.59729,0.42395,1.014664,-0.080568,-0.100099,-26.415914,-58.632548,21.31543
1784585390.9729,15:09:50.972,0,false,0.597584,-0.32196,0.603516,0.418335,0.931655,-0.013672,-0.028321,-26.510876,-58.855507,21.471825
1784585391.0041,15:09:51.004,1,false,0.594213,-0.326355,0.604187,0.418762,0.955093,-0.036622,0.006836,-26.506618,-59.026262,21.732211
1784585391.0352,15:09:51.035,2,false,0.591017,-0.330994,0.602844,0.42157,0.97023,-0.068849,-0.002441,-26.562602,-59.090219,22.056281
1784585391.0666,15:09:51.066,3,false,0.587481,-0.337463,0.597961,0.428284,0.963882,-0.132326,-0.035157,-26.583079,-59.028149,22.153545
1784585391.0979,15:09:51.097,4,false,0.58652,-0.340637,0.59375,0.432922,0.971695,-0.133791,-0.043458,-26.571601,-58.972286,22.345759
1784585391.1292,15:09:51.129,5,false,0.586837,-0.342834,0.589294,0.436829,0.980484,-0.129397,-0.074708,-26.561271,-58.951917,22.443982
1784585391.1606,15:09:51.160,6,false,0.588826,-0.344543,0.583191,0.440979,0.980972,-0.133303,-0.086427,-26.477205,-58.858816,22.502475
1784585391.1919,15:09:51.191,7,false,0.59072,-0.344788,0.579407,0.443237,0.979019,-0.126467,-0.098146,-26.281914,-58.849794,22.450443
1784585391.2232,15:09:51.223,8,false,0.594521,-0.343262,0.574768,0.445374,1.011246,-0.106935,-0.124514,-26.315506,-58.677182,22.493336
1784585391.2546,15:09:51.254,9,false,0.595921,-0.342468,0.573364,0.445923,1.008804,-0.097169,-0.133303,-26.46537,-58.641462,22.307633
1784585391.2857,15:09:51.285,10,false,0.60092,-0.339661,0.569519,0.446289,0.999039,-0.132815,-0.143069,-26.495571,-58.579406,22.125546
1784585391.3169,15:09:51.316,11,false,0.604891,-0.336975,0.568054,0.444824,1.010269,-0.147463,-0.164553,-26.522751,-58.523556,21.961667
1784585391.348,15:09:51.348,12,false,0.611121,-0.331543,0.568054,0.440369,1.024918,-0.154299,-0.167971,-26.517306,-58.398522,21.784269
1784585391.3791,15:09:51.379,13,false,0.61479,-0.326599,0.570251,0.436096,1.021012,-0.098146,-0.166506,-26.362867,-58.226176,21.729288
1784585391.4103,15:09:51.410,14,false,0.617277,-0.321777,0.573547,0.431824,1.014176,-0.078126,-0.164553,-26.433226,-58.160787,21.485404
1784585391.4416,15:09:51.441,15,false,0.6195,-0.317322,0.577637,0.426453,0.960952,0.000488,-0.11133,-26.421779,-58.236522,21.370586
1784585391.4729,15:09:51.472,16,false,0.620776,-0.318054,0.577393,0.424377,0.960464,0.019532,-0.104005,-26.426431,-58.259822,21.386881
1784585391.5043,15:09:51.504,17,false,0.622307,-0.322815,0.572815,0.424744,0.978531,-0.041993,-0.112306,-26.430618,-58.23593,21.326777
1784585391.5356,15:09:51.535,18,false,0.621516,-0.324707,0.569824,0.428467,0.996597,-0.07422,-0.127932,-26.359617,-58.259289,21.347452
1784585391.567,15:09:51.567,19,false,0.619016,-0.324341,0.568176,0.434509,0.998062,-0.082033,-0.150881,-26.385439,-58.265358,21.276337
1784585391.5981,15:09:51.598,20,false,0.614329,-0.322205,0.566589,0.444702,1.016617,-0.112795,-0.189944,-26.423633,-58.166144,21.167472
1784585391.6294,15:09:51.629,21,false,0.61149,-0.321045,0.566223,0.44989,1.042496,-0.140627,-0.200198,-26.278561,-58.34602,21.24894
1784585391.6606,15:09:51.660,22,false,0.607912,-0.320251,0.567261,0.453979,1.02443,-0.17969,-0.184085,-26.252673,-58.507908,21.023183
1784585391.6917,15:09:51.691,23,false,0.601428,-0.318787,0.57135,0.458496,1.032242,-0.16553,-0.162112,-26.214421,-58.548931,20.909726
1784585391.7228,15:09:51.722,24,false,0.596424,-0.318237,0.575073,0.460754,1.012222,-0.183108,-0.144533,-26.120178,-58.645667,20.792661
1784585391.754,15:09:51.754,25,false,0.588391,-0.318115,0.580933,0.463806,0.97023,-0.187503,-0.132815,-26.020405,-58.717775,20.851794
1784585391.7851,15:09:51.785,26,false,0.586176,-0.318054,0.582764,0.464355,0.918471,-0.183597,-0.103517,-25.990426,-58.902303,20.845198
1784585391.8165,15:09:51.816,27,false,0.58299,-0.319763,0.584778,0.464661,0.951186,-0.210452,-0.09131,-26.023259,-59.098287,20.86917
1784585391.8478,15:09:51.847,28,false,0.583163,-0.321533,0.584167,0.463989,0.955093,-0.222171,-0.099611,-25.918225,-59.319533,20.980468
1784585391.8791,15:09:51.879,29,false,0.585264,-0.325134,0.581421,0.46228,0.98439,-0.198734,-0.098146,-25.883509,-59.324255,20.841374
1784585391.9105,15:09:51.910,30,false,0.587324,-0.327087,0.579651,0.46051,1.008804,-0.145022,-0.120119,-25.79245,-59.492996,20.835821
1784585391.9416,15:09:51.941,31,false,0.588258,-0.327881,0.579224,0.45929,1.028336,-0.129885,-0.111818,-25.815173,-59.540187,20.830823
1784585391.9728,15:09:51.972,0,false,0.586351,-0.325195,0.582275,0.459778,0.980484,-0.1084,-0.10547,-25.671132,-59.522844,20.856232
1784585392.0039,15:09:52.003,1,false,0.583816,-0.322266,0.5849,0.461731,0.912612,-0.144533,-0.101564,-25.765803,-59.68668,20.879101
1784585392.035,15:09:52.035,2,false,0.584664,-0.323059,0.58429,0.460876,0.877943,-0.25684,-0.091798,-25.761283,-59.74441,20.809959
1784585392.0662,15:09:52.066,3,false,0.593512,-0.333618,0.576294,0.452026,1.054215,-0.207523,-0.125002,-25.757215,-59.721598,20.777639
1784585392.0973,15:09:52.097,4,false,0.597812,-0.338074,0.572815,0.447449,1.123552,-0.116213,-0.121584,-25.858232,-59.626298,20.748552
1784585392.1284,15:09:52.128,5,false,0.59659,-0.335388,0.57428,0.449219,1.084977,-0.021485,-0.134279,-25.799608,-59.435851,20.82705
1784585392.1596,15:09:52.159,6,false,0.595338,-0.333069,0.575684,0.450806,0.954116,-0.097169,-0.141604,-25.896384,-59.294357,20.822929
1784585392.1909,15:09:52.190,7,false,0.592214,-0.326111,0.579468,0.455139,0.934096,-0.183597,-0.113283,-25.804038,-59.137104,20.81922
1784585392.2223,15:09:52.222,8,false,0.594225,-0.327881,0.578369,0.452637,1.019547,-0.16846,-0.104005,-25.810648,-59.160068,20.726159
1784585392.2536,15:09:52.253,9,false,0.595442,-0.329468,0.577454,0.45105,1.040543,-0.143069,-0.118166,-25.816598,-59.07606,20.642404
1784585392.2849,15:09:52.284,10,false,0.595341,-0.328003,0.57782,0.451782,1.009293,-0.096681,-0.127443,-25.792045,-59.03036,20.686655
1784585392.3163,15:09:52.316,11,false,0.595227,-0.326782,0.578247,0.452271,0.934096,-0.152834,-0.140139,-25.919486,-58.989229,20.786297
1784585392.3476,15:09:52.347,12,false,0.597789,-0.326721,0.577209,0.450256,1.014664,-0.130861,-0.138674,-25.959413,-59.026982,20.741389
1784585392.3787,15:09:52.378,13,false,0.599581,-0.327332,0.576477,0.448364,1.036637,-0.113283,-0.136721,-25.920579,-58.806743,20.80565
1784585392.4099,15:09:52.409,14,false,0.599975,-0.326233,0.577637,0.447144,1.031266,-0.08838,-0.127443,-25.960397,-58.817882,20.833576
1784585392.441,15:09:52.441,15,false,0.599221,-0.323792,0.579224,0.447876,0.9673,-0.13135,-0.118654,-25.951372,-58.723231,20.85871
1784585392.4722,15:09:52.472,16,false,0.599269,-0.321899,0.580322,0.447754,0.973159,-0.151858,-0.113771,-26.003065,-58.69786,20.896285
1784585392.5033,15:09:52.503,17,false,0.600333,-0.320984,0.580811,0.44635,1.005386,-0.163088,-0.120119,-26.004727,-58.630164,20.930102
1784585392.5346,15:09:52.534,18,false,0.600874,-0.320496,0.581177,0.445496,1.006363,-0.150881,-0.12256,-26.006222,-58.763638,20.885768
1784585392.566,15:09:52.566,19,false,0.600951,-0.319641,0.581848,0.445129,1.010269,-0.128908,-0.129397,-25.917846,-58.74918,20.830914
1784585392.5973,15:09:52.597,20,false,0.600451,-0.318176,0.582886,0.445496,0.965347,-0.146975,-0.118654,-25.913076,-58.766076,20.781545
1784585392.6286,15:09:52.628,21,false,0.600824,-0.318604,0.582642,0.445007,0.991714,-0.133791,-0.119631,-25.74429,-58.885959,20.64739
1784585392.66,15:09:52.660,22,false,0.600992,-0.319519,0.582153,0.444763,1.007828,-0.139651,-0.126955,-25.756876,-58.934038,20.571512
1784585392.6913,15:09:52.691,23,false,0.600973,-0.31958,0.582092,0.444824,0.999039,-0.134768,-0.125978,-25.708388,-58.842725,20.592944
1784585392.7227,15:09:52.722,24,false,0.600834,-0.319946,0.581848,0.445068,0.991226,-0.115236,-0.133791,-25.664748,-58.805404,20.657095
1784585392.754,15:09:52.754,25,false,0.600745,-0.32019,0.581665,0.445251,1.008804,-0.120607,-0.12842,-25.65538,-58.78677,20.655016
1784585392.7851,15:09:52.785,26,false,0.600395,-0.320618,0.581604,0.445496,0.990738,-0.113283,-0.126955,-25.721718,-58.799906,20.727914
1784585392.8163,15:09:52.816,27,false,0.600214,-0.320313,0.581726,0.445801,1.000992,-0.132326,-0.124025,-25.871145,-58.841637,20.629029
1784585392.8474,15:09:52.847,28,false,0.600247,-0.319824,0.581726,0.446106,0.986831,-0.130861,-0.12256,-25.945815,-58.894148,20.809203
1784585392.8786,15:09:52.878,29,false,0.600679,-0.319458,0.581482,0.446106,0.98732,-0.150881,-0.118654,-25.983109,-58.866639,20.791913
1784585392.9097,15:09:52.909,30,false,0.600745,-0.319641,0.58136,0.446045,1.002457,-0.126467,-0.130373,-26.031628,-58.782066,20.761398
1784585392.941,15:09:52.941,31,false,0.60036,-0.320251,0.581421,0.446045,0.992691,-0.115236,-0.126467,-26.20988,-58.795673,20.71898
1784585392.9724,15:09:52.972,0,false,0.599933,-0.320679,0.581299,0.446472,0.986343,-0.125978,-0.12842,-26.310491,-58.912596,20.800435
1784585393.0037,15:09:53.003,1,false,0.599804,-0.321167,0.581116,0.446533,1.005875,-0.123049,-0.120607,-26.341226,-58.91315,20.828884
1784585393.035,15:09:53.035,2,false,0.598988,-0.321838,0.581116,0.447144,0.993179,-0.142092,-0.12256,-26.443656,-58.808971,20.884394
1784585393.0664,15:09:53.066,3,false,0.598648,-0.321777,0.58136,0.447327,0.985855,-0.134768,-0.120119,-26.461074,-58.715211,21.009124
1784585393.0975,15:09:53.097,4,false,0.598431,-0.321594,0.581543,0.44751,0.979507,-0.136721,-0.115236,-26.387028,-58.72055,20.986795
1784585393.1287,15:09:53.128,5,false,0.597624,-0.321472,0.58197,0.44812,0.986343,-0.135256,-0.12256,-26.484878,-58.680493,20.996607
1784585393.1598,15:09:53.159,6,false,0.597056,-0.32074,0.582581,0.448608,0.981949,-0.151858,-0.112306,-26.393497,-58.704257,21.035346
1784585393.1909,15:09:53.190,7,false,0.597286,-0.316956,0.585022,0.447815,1.000504,-0.212894,-0.138674,-26.460793,-58.695737,21.100118
1784585393.2221,15:09:53.222,8,false,0.597601,-0.315308,0.586243,0.44696,0.996597,-0.241215,-0.134768,-26.386774,-58.822654,20.964014
1784585393.2532,15:09:53.253,9,false,0.600855,-0.308289,0.591614,0.440369,1.025895,-0.330571,-0.154788,-26.424834,-58.996694,20.946196
1784585393.2843,15:09:53.284,10,false,0.60488,-0.302368,0.5979,0.430359,1.038102,-0.273442,-0.130861,-26.369365,-58.988838,21.019884
1784585393.3157,15:09:53.315,11,false,0.611325,-0.291809,0.610779,0.409973,1.00441,-0.247074,-0.107424,-26.394213,-58.981768,21.026387
1784585393.347,15:09:53.347,12,false,0.616039,-0.283752,0.620056,0.394348,0.973648,-0.152346,-0.080568,-26.281991,-59.03522,21.406086
1784585393.3784,15:09:53.378,13,false,0.621236,-0.275269,0.628601,0.378357,0.9673,-0.097169,-0.043458,-26.405298,-59.232865,21.628184
1784585393.4097,15:09:53.409,14,false,0.627843,-0.266174,0.637207,0.35907,0.968765,0.062501,0.009277,-26.516275,-59.410746,22.186965
1784585393.441,15:09:53.441,15,false,0.630353,-0.264099,0.639404,0.352234,0.957534,0.031739,-0.015625,-26.765693,-59.645608,22.689868
1784585393.4722,15:09:53.472,16,false,0.632004,-0.264099,0.639282,0.349487,0.991714,0.015625,-0.011231,-26.885492,-59.782215,23.262111
1784585393.5033,15:09:53.503,17,false,0.632206,-0.26886,0.635071,0.353149,0.994156,-0.045411,-0.045411,-27.06808,-59.800484,23.836945
1784585393.5344,15:09:53.534,18,false,0.631385,-0.273132,0.631042,0.358521,0.993668,-0.066407,-0.053712,-26.963241,-59.816926,24.249619
1784585393.5656,15:09:53.565,19,false,0.629768,-0.279114,0.624634,0.367859,1.000992,-0.105959,-0.068849,-27.018424,-59.891539,24.516348
1784585393.5967,15:09:53.596,20,false,0.62905,-0.280701,0.622803,0.370972,1.034195,-0.115236,-0.09131,-27.068088,-60.003552,24.786313
1784585393.6279,15:09:53.627,21,false,0.626422,-0.285339,0.618103,0.379639,1.064958,-0.11133,-0.086915,-27.038017,-60.179134,24.849834
1784585393.659,15:09:53.659,22,false,0.623873,-0.287842,0.616272,0.384888,1.049332,-0.135256,-0.082521,-27.085722,-60.187618,25.131312
1784585393.6903,15:09:53.690,23,false,0.619615,-0.289001,0.615173,0.392578,1.012711,-0.178225,-0.084962,-27.098749,-60.270024,25.235103
1784585393.7217,15:09:53.721,24,false,0.615888,-0.289978,0.614807,0.398254,1.090349,-0.183108,-0.076173,-27.200196,-60.209604,25.38833
1784585393.753,15:09:53.753,25,false,0.61423,-0.290283,0.615173,0.400024,1.052262,-0.207523,-0.065431,-27.201776,-60.289811,25.541189
1784585393.7844,15:09:53.784,26,false,0.608586,-0.291016,0.616516,0.406006,0.992203,-0.217777,-0.058106,-27.277967,-60.317136,25.648853
1784585393.8157,15:09:53.815,27,false,0.606127,-0.292175,0.616211,0.409302,0.939956,-0.221683,-0.059083,-27.152138,-60.31182,25.805567
1784585393.847,15:09:53.847,28,false,0.606363,-0.296265,0.612183,0.412048,0.915053,-0.191897,-0.073243,-27.14357,-60.471529,25.976517
1784585393.8782,15:09:53.878,29,false,0.608896,-0.300842,0.607666,0.411682,0.937026,-0.142092,-0.065431,-27.061089,-60.510589,25.980834
1784585393.9093,15:09:53.909,30,false,0.612519,-0.307556,0.601624,0.410217,0.933608,-0.11426,-0.094728,-27.00181,-60.456021,25.969765
1784585393.9404,15:09:53.940,31,false,0.61893,-0.318726,0.591736,0.406433,0.965347,-0.006836,-0.109865,-26.978367,-60.406909,25.810265
1784585393.9716,15:09:53.971,0,false,0.622394,-0.325562,0.585815,0.404297,0.978042,-0.003418,-0.112795,-27.061944,-60.302893,25.756438
1784585394.0027,15:09:54.002,1,false,0.624846,-0.33075,0.580994,0.403259,0.985367,0.021485,-0.132815,-27.182026,-60.224233,25.588362
1784585394.0339,15:09:54.033,2,false,0.627235,-0.33551,0.575623,0.40332,1.001968,0.011719,-0.131838,-27.21533,-59.973992,25.437095
1784585394.0652,15:09:54.065,3,false,0.628374,-0.337158,0.573242,0.403564,1.014664,0.01709,-0.136721,-27.245304,-59.853453,25.256092
1784585394.0965,15:09:54.096,4,false,0.628326,-0.338257,0.571655,0.404968,1.00734,-0.022461,-0.139162,-27.332096,-59.700106,25.153005
1784585394.1279,15:09:54.127,5,false,0.628066,-0.338318,0.571472,0.405579,1.025406,-0.033204,-0.124514,-27.395255,-59.457416,25.000412
1784585394.1592,15:09:54.159,6,false,0.626102,-0.338257,0.571838,0.408142,1.023453,-0.05127,-0.119631,-27.437144,-59.298811,24.922893
1784585394.1905,15:09:54.190,7,false,0.623806,-0.337952,0.572998,0.410278,1.031754,-0.076661,-0.118654,-27.549613,-59.200928,24.778357
1784585394.2218,15:09:54.221,8,false,0.619706,-0.337402,0.575439,0.413513,1.034195,-0.082033,-0.104982,-27.456435,-59.038065,24.588459
1784585394.2531,15:09:54.253,9,false,0.616735,-0.337708,0.577087,0.415405,1.011734,-0.066896,-0.098146,-27.50716,-59.011118,24.537181
1784585394.2843,15:09:54.284,10,false,0.613918,-0.338257,0.578491,0.417175,1.012711,-0.07422,-0.095705,-27.58272,-58.956958,24.491032
1784585394.3154,15:09:54.315,11,false,0.610328,-0.339111,0.579712,0.420044,0.969741,-0.07129,-0.087404,-27.561001,-58.89326,24.464451
1784585394.3465,15:09:54.346,12,false,0.609045,-0.340942,0.579102,0.421265,0.940444,-0.068849,-0.082521,-27.511546,-58.970517,24.440528
1784585394.3777,15:09:54.377,13,false,0.610341,-0.34552,0.5755,0.420593,0.916518,-0.089357,-0.086427,-27.422176,-59.114817,24.493767
1784585394.4088,15:09:54.408,14,false,0.615824,-0.355774,0.566223,0.416626,1.057145,-0.059083,-0.107424,-27.431465,-59.005426,24.451959
1784585394.4399,15:09:54.439,15,false,0.616864,-0.358948,0.562988,0.416748,1.124529,0.008301,-0.123049,-27.469733,-58.787343,24.354516
1784585394.4713,15:09:54.471,16,false,0.61231,-0.356628,0.564697,0.423096,0.955093,-0.001465,-0.115724,-27.384543,-58.695746,24.207002
1784585394.5026,15:09:54.502,17,false,0.609704,-0.353638,0.56604,0.427551,0.924819,-0.061524,-0.117189,-27.457411,-58.508631,24.07424
1784585394.534,15:09:54.534,18,false,0.609826,-0.353333,0.564758,0.429321,0.98439,-0.110353,-0.133791,-27.508038,-58.385089,23.969707
1784585394.5653,15:09:54.565,19,false,0.612124,-0.355408,0.56189,0.428101,1.069352,-0.063966,-0.144045,-27.628372,-58.348671,23.935443
1784585394.5966,15:09:54.596,20,false,0.612226,-0.356323,0.561523,0.427673,1.042985,-0.064942,-0.134768,-27.646949,-58.271032,23.859744
1784585394.6278,15:09:54.627,21,false,0.611742,-0.356384,0.562012,0.427673,1.011246,-0.028809,-0.124514,-27.738438,-58.126389,23.686939
1784585394.6591,15:09:54.659,22,false,0.611744,-0.356262,0.562134,0.427612,1.003433,-0.020996,-0.122072,-27.835732,-58.19061,23.651044
1784585394.6903,15:09:54.690,23,false,0.611791,-0.356262,0.5625,0.427063,1.006363,-0.014649,-0.12842,-27.788712,-58.128778,23.573877
1784585394.7214,15:09:54.721,24,false,0.61157,-0.356262,0.56311,0.426575,1.000015,-0.019043,-0.12549,-27.73144,-58.013314,23.579197
1784585394.7525,15:09:54.752,25,false,0.610908,-0.355591,0.564575,0.426147,0.991714,-0.021973,-0.104982,-27.73971,-57.894442,23.509215
1784585394.7837,15:09:54.783,26,false,0.610203,-0.35498,0.565491,0.426453,1.010758,-0.025879,-0.12256,-27.567708,-57.877181,23.416323
1784585394.8148,15:09:54.814,27,false,0.609196,-0.354126,0.56665,0.427063,0.992203,-0.04004,-0.108888,-27.592351,-57.80183,23.362629
1784585394.8461,15:09:54.846,28,false,0.608304,-0.353088,0.567932,0.42749,1.014176,-0.061524,-0.1084,-27.554715,-57.868599,23.254488
1784585394.8775,15:09:54.877,29,false,0.607989,-0.352722,0.568542,0.427429,1.010758,-0.067384,-0.111818,-27.610566,-57.764199,23.276792
1784585394.9088,15:09:54.908,30,false,0.607887,-0.352234,0.569092,0.427246,0.990738,-0.062013,-0.104982,-27.675785,-57.759962,23.207143
1784585394.9402,15:09:54.940,31,false,0.607809,-0.352295,0.569092,0.427307,1.008804,-0.073732,-0.107424,-27.689621,-57.666425,23.174367
1784585394.9715,15:09:54.971,0,false,0.607631,-0.3526,0.568909,0.427551,1.020523,-0.053223,-0.100587,-27.672166,-57.746735,23.159822
1784585395.0028,15:09:55.002,1,false,0.606388,-0.35321,0.569214,0.428406,1.024918,-0.036133,-0.11426,-27.791041,-57.759198,23.161685
1784585395.0342,15:09:55.034,2,false,0.605592,-0.353516,0.569458,0.428955,1.020523,-0.019043,-0.100099,-27.793351,-57.620876,23.013823
1784585395.0653,15:09:55.065,3,false,0.602005,-0.354675,0.570557,0.43158,0.989273,-0.015137,-0.103029,-27.615985,-57.58611,22.970471
1784585395.0964,15:09:55.096,4,false,0.599114,-0.35614,0.570557,0.434387,1.004898,0.001465,-0.085451,-27.575985,-57.599682,23.006223
1784585395.1276,15:09:55.127,5,false,0.592525,-0.361145,0.568665,0.441711,1.007828,0.047364,-0.081544,-27.614755,-57.537127,22.903816
1784585395.1587,15:09:55.158,6,false,0.581985,-0.369263,0.563232,0.45575,0.98732,-0.006836,-0.086915,-27.574879,-57.585505,22.811649
1784585395.1901,15:09:55.190,7,false,0.577883,-0.372375,0.56073,0.461487,0.965835,-0.058106,-0.119631,-27.479175,-57.464553,22.818422
1784585395.2214,15:09:55.221,8,false,0.565492,-0.380737,0.552368,0.479736,0.969741,-0.214359,-0.134768,-27.407995,-57.49028,22.615163
1784585395.2527,15:09:55.252,9,false,0.559447,-0.383362,0.547852,0.489807,0.978042,-0.278325,-0.151369,-27.343933,-57.468574,22.477093
1784585395.2841,15:09:55.284,10,false,0.555818,-0.381409,0.546143,0.497314,1.018082,-0.291997,-0.14551,-27.25637,-57.389222,22.128521
1784585395.3154,15:09:55.315,11,false,0.556072,-0.377991,0.548035,0.497559,1.0215,-0.247074,-0.138186,-27.237378,-57.362667,21.769945
1784585395.3468,15:09:55.346,12,false,0.558046,-0.373962,0.55127,0.494812,0.988785,-0.21387,-0.135744,-27.070747,-57.263999,21.551904
1784585395.3781,15:09:55.378,13,false,0.563307,-0.368042,0.556458,0.487427,0.990249,-0.146487,-0.108888,-27.010502,-57.26492,21.340713
1784585395.4094,15:09:55.409,14,false,0.567335,-0.364807,0.559326,0.481873,0.98732,-0.123537,-0.11426,-27.016097,-57.295657,21.270272
1784585395.4406,15:09:55.440,15,false,0.571472,-0.362122,0.561768,0.476135,0.994644,-0.129885,-0.117189,-26.916456,-57.188736,21.087244
1784585395.4717,15:09:55.471,16,false,0.57751,-0.358276,0.565125,0.467712,1.005875,-0.178225,-0.12842,-26.826779,-57.137368,20.952427
1784585395.5028,15:09:55.502,17,false,0.582187,-0.353882,0.568848,0.460693,1.0215,-0.193362,-0.146975,-26.8657,-57.225722,20.756322
1784585395.534,15:09:55.534,18,false,0.591009,-0.343323,0.579468,0.443909,1.040055,-0.210941,-0.155764,-26.855868,-57.200563,20.93872
1784585395.5651,15:09:55.565,19,false,0.594166,-0.339355,0.584167,0.436523,1.03859,-0.120119,-0.127443,-27.056372,-57.37232,21.058016
1784585395.5965,15:09:55.596,20,false,0.602226,-0.329834,0.598999,0.411987,0.972671,0.081056,-0.047364,-27.027473,-57.36241,21.210245
1784585395.6278,15:09:55.627,21,false,0.605326,-0.328613,0.605835,0.398193,0.907729,0.126467,0.000977,-27.195863,-57.428259,21.571558
1784585395.6591,15:09:55.659,22,false,0.607521,-0.331238,0.607605,0.389893,0.949233,0.08838,0.020996,-27.257691,-57.547339,21.836925
1784585395.6905,15:09:55.690,23,false,0.607463,-0.334106,0.605225,0.391235,0.990738,0.008301,-0.020996,-27.268475,-57.654511,22.105662
1784585395.7218,15:09:55.721,24,false,0.606607,-0.336426,0.602173,0.395264,0.98732,-0.042481,-0.029786,-27.412765,-57.661243,22.227895
1784585395.7529,15:09:55.752,25,false,0.605204,-0.338074,0.59845,0.401611,1.04152,-0.107424,-0.069825,-27.378134,-57.757024,22.427628
1784585395.7841,15:09:55.784,26,false,0.603963,-0.338379,0.597351,0.404846,1.026383,-0.090333,-0.078614,-27.466597,-57.648828,22.592434
1784585395.8152,15:09:55.815,27,false,0.603248,-0.338501,0.596802,0.406616,1.003922,-0.079103,-0.067384,-27.471444,-57.611266,22.770666
1784585395.8464,15:09:55.846,28,false,0.602315,-0.339355,0.596008,0.408447,0.997086,-0.035645,-0.045411,-27.460852,-57.682138,22.916122
1784585395.8775,15:09:55.877,29,false,0.60082,-0.341187,0.594666,0.411072,0.992691,-0.035157,-0.055665,-27.585905,-57.686107,23.032078
1784585395.9086,15:09:55.908,30,false,0.597385,-0.345886,0.591064,0.417297,0.982925,-0.057618,-0.070314,-27.608729,-57.704633,23.121485
1784585395.94,15:09:55.940,31,false,0.596021,-0.347839,0.589478,0.419861,0.997086,-0.029297,-0.065919,-27.70404,-57.616629,23.022505
1784585395.9713,15:09:55.971,0,false,0.59104,-0.354492,0.584045,0.428833,1.010269,-0.061036,-0.101564,-27.864589,-57.612195,23.0381
1784585396.0027,15:09:56.002,1,false,0.585337,-0.35968,0.579346,0.438599,1.000504,-0.085939,-0.097169,-27.949267,-57.548389,23.037182
1784585396.034,15:09:56.034,2,false,0.581787,-0.361572,0.577087,0.444702,0.988785,-0.111818,-0.109865,-27.980617,-57.640502,22.812047
1784585396.0653,15:09:56.065,3,false,0.578924,-0.359619,0.576355,0.450928,1.023941,-0.193851,-0.093751,-27.919108,-57.558912,22.669242
1784585396.0967,15:09:56.096,4,false,0.578498,-0.357605,0.577271,0.451904,1.022965,-0.195315,-0.08838,-27.803935,-57.575204,22.660348
1784585396.128,15:09:56.128,5,false,0.577096,-0.350708,0.581787,0.453308,0.986831,-0.160159,-0.070314,-27.685325,-57.709497,22.502805
1784585396.1591,15:09:56.159,6,false,0.576564,-0.346436,0.584961,0.453186,0.994156,-0.12549,-0.074708,-27.772976,-57.800453,22.420831
1784585396.1903,15:09:56.190,7,false,0.575455,-0.342102,0.588074,0.453857,0.975601,-0.136721,-0.062989,-27.567739,-57.822498,22.511547
1784585396.2214,15:09:56.221,8,false,0.57519,-0.340393,0.588806,0.454529,0.982925,-0.158694,-0.089845,-27.457795,-57.917108,22.593192
1784585396.2526,15:09:56.252,9,false,0.575228,-0.339661,0.58905,0.454712,0.993668,-0.169924,-0.080079,-27.358846,-58.077026,22.487226
1784585396.2837,15:09:56.283,10,false,0.576507,-0.338684,0.589539,0.453186,0.98146,-0.148928,-0.076173,-27.329606,-58.026552,22.526441
1784585396.3148,15:09:56.314,11,false,0.577729,-0.338501,0.589478,0.451843,0.989273,-0.135744,-0.079591,-27.198614,-58.100757,22.292566
1784585396.3462,15:09:56.346,12,false,0.579054,-0.338196,0.589661,0.450134,0.997086,-0.124025,-0.081544,-27.15549,-58.092772,22.141893
1784585396.3775,15:09:56.377,13,false,0.581129,-0.337402,0.59021,0.447327,0.999527,-0.114748,-0.075685,-27.071817,-58.115493,22.17078
1784585396.4088,15:09:56.408,14,false,0.58206,-0.336853,0.590576,0.446045,0.992691,-0.10547,-0.073732,-27.041373,-58.150895,22.181824
1784585396.4402,15:09:56.440,15,false,0.582411,-0.336914,0.590149,0.446106,1.000992,-0.086915,-0.066407,-27.013974,-58.107989,22.012318
1784585396.4715,15:09:56.471,16,false,0.582191,-0.337524,0.589417,0.446899,1.008804,-0.103029,-0.086427,-27.019222,-58.338542,22.158839
1784585396.5029,15:09:56.502,17,false,0.579913,-0.33905,0.587341,0.451416,1.002945,-0.143069,-0.081056,-26.994037,-58.27687,22.275755
1784585396.5342,15:09:56.534,18,false,0.577392,-0.340088,0.585876,0.45575,1.000015,-0.164553,-0.078126,-26.881648,-58.415766,22.261348
1784585396.5653,15:09:56.565,19,false,0.573814,-0.341614,0.584106,0.461365,0.975601,-0.197269,-0.099123,-26.915082,-58.451049,22.00912
1784585396.5965,15:09:56.596,20,false,0.573537,-0.341492,0.583435,0.462646,0.986831,-0.226078,-0.095216,-26.750773,-58.482804,22.03633
1784585396.6276,15:09:56.627,21,false,0.57404,-0.341309,0.583435,0.462158,0.982437,-0.191409,-0.095705,-26.677664,-58.481476,21.776697
1784585396.659,15:09:56.659,22,false,0.576496,-0.339905,0.58429,0.459045,1.001968,-0.144045,-0.098146,-26.671682,-58.525142,21.707519
1784585396.6901,15:09:56.690,23,false,0.578236,-0.338074,0.585449,0.456726,1.000504,-0.144045,-0.097658,-26.501805,-58.474718,21.615351
1784585396.7214,15:09:56.721,24,false,0.580516,-0.334839,0.58728,0.453857,1.014664,-0.108888,-0.095216,-26.498454,-58.548967,21.472584
1784585396.7528,15:09:56.752,25,false,0.58118,-0.333374,0.588257,0.45282,1.00441,-0.161135,-0.10547,-26.480485,-58.555976,21.388956
1784585396.7841,15:09:56.784,26,false,0.581683,-0.331787,0.589172,0.452148,0.976089,-0.184085,-0.106935,-26.359636,-58.577238,21.373506
1784585396.8154,15:09:56.815,27,false,0.581877,-0.32959,0.59082,0.451355,0.999527,-0.175296,-0.115236,-26.325641,-58.521605,21.494185
1784585396.8468,15:09:56.846,28,false,0.581815,-0.32843,0.592224,0.450439,1.002945,-0.188479,-0.102052,-26.265137,-58.441627,21.49812
1784585396.8781,15:09:56.878,29,false,0.581961,-0.327698,0.593689,0.448853,1.012222,-0.159182,-0.095216,-26.315361,-58.444417,21.471754
1784585396.9093,15:09:56.909,30,false,0.581062,-0.328003,0.595642,0.447205,0.999039,-0.161624,-0.066407,-26.285793,-58.596465,21.343347
1784585396.9404,15:09:56.940,31,false,0.580158,-0.328491,0.596985,0.446228,0.990249,-0.155764,-0.0542,-26.214321,-58.778171,21.242735
1784585396.9715,15:09:56.971,0,false,0.579678,-0.329956,0.598145,0.444214,0.979995,-0.144045,-0.050782,-26.224765,-58.76226,21.286768
1784585397.0027,15:09:57.002,1,false,0.579662,-0.330444,0.598389,0.443542,0.983902,-0.131838,-0.026856,-26.174349,-58.837663,21.386214
1784585397.0338,15:09:57.033,2,false,0.579953,-0.331604,0.598999,0.441467,0.980972,-0.140627,-0.019532,-26.278513,-58.905525,21.400945
1784585397.0649,15:09:57.064,3,false,0.580873,-0.332153,0.59906,0.439758,0.966812,-0.123537,-0.027832,-26.252631,-58.891832,21.518881
1784585397.0963,15:09:57.096,4,false,0.583576,-0.332031,0.598511,0.437012,0.990249,-0.130861,-0.049805,-26.274197,-58.954278,21.669884
1784585397.1276,15:09:57.127,5,false,0.585498,-0.332092,0.598022,0.435059,0.994644,-0.118654,-0.053712,-26.353423,-58.920756,21.671203
1784585397.159,15:09:57.159,6,false,0.587381,-0.332458,0.597168,0.433411,0.994156,-0.097169,-0.0542,-26.514449,-58.980309,21.702297
1784585397.1903,15:09:57.190,7,false,0.5901,-0.332336,0.595703,0.431824,1.035172,-0.110353,-0.090333,-26.464973,-58.884369,21.655513
1784585397.2216,15:09:57.221,8,false,0.591501,-0.331177,0.595093,0.431641,0.976089,-0.121096,-0.104494,-26.495213,-58.768115,21.688177
1784585397.2528,15:09:57.252,9,false,0.592193,-0.329407,0.595032,0.432129,1.022477,-0.12549,-0.118654,-26.44766,-58.738255,21.747481
1784585397.2839,15:09:57.283,10,false,0.591827,-0.327332,0.59552,0.433533,0.986831,-0.127443,-0.106447,-26.449724,-58.786151,21.875625
1784585397.3152,15:09:57.315,11,false,0.591549,-0.326721,0.595642,0.434204,1.000504,-0.143069,-0.089845,-26.466535,-58.664765,21.931138
1784585397.3463,15:09:57.346,12,false,0.590946,-0.325867,0.59613,0.434998,1.009781,-0.150881,-0.07715,-26.406896,-58.585425,21.951193
1784585397.3774,15:09:57.377,13,false,0.58995,-0.324829,0.596924,0.436035,0.990249,-0.157717,-0.080079,-26.413037,-58.499065,21.984196
1784585397.4086,15:09:57.408,14,false,0.589181,-0.324036,0.597534,0.436829,0.977554,-0.154299,-0.084962,-26.568101,-58.675557,21.93913
1784585397.4397,15:09:57.439,15,false,0.589118,-0.32373,0.597717,0.43689,0.989761,-0.138186,-0.084474,-26.573075,-58.669907,21.913524
1784585397.471,15:09:57.471,16,false,0.589513,-0.323608,0.597839,0.436279,0.983902,-0.132815,-0.090333,-26.637367,-58.933991,21.980201
1784585397.5024,15:09:57.502,17,false,0.590434,-0.324463,0.597046,0.435486,0.989761,-0.128908,-0.089845,-26.635414,-58.977267,22.025258
1784585397.5337,15:09:57.533,18,false,0.590704,-0.32489,0.59668,0.435303,1.012222,-0.123537,-0.07422,-26.678518,-59.016216,21.961131
1784585397.5651,15:09:57.565,19,false,0.590887,-0.326599,0.59552,0.435364,1.009293,-0.120607,-0.082521,-26.807034,-59.036315,21.99314
1784585397.5964,15:09:57.596,20,false,0.590521,-0.327942,0.594788,0.435852,1.013199,-0.109865,-0.079103,-26.832976,-59.144128,21.962133
1784585397.6275,15:09:57.627,21,false,0.589443,-0.329163,0.594421,0.43689,1.008804,-0.131838,-0.075196,-26.676878,-59.181344,21.919273
1784585397.6587,15:09:57.658,22,false,0.58832,-0.329468,0.594421,0.438171,0.989273,-0.137209,-0.082521,-26.641066,-59.095208,21.865745
1784585397.6898,15:09:57.689,23,false,0.58747,-0.329712,0.59436,0.439209,1.000992,-0.139162,-0.093263,-26.758374,-59.047593,21.892339
1784585397.7209,15:09:57.720,24,false,0.586375,-0.330688,0.594177,0.440186,0.990738,-0.168948,-0.076661,-26.714413,-59.079509,21.871412
1784585397.7521,15:09:57.752,25,false,0.585493,-0.331299,0.594299,0.440735,0.993179,-0.134768,-0.066407,-26.749617,-59.063371,21.852578
1784585397.7832,15:09:57.783,26,false,0.584645,-0.332092,0.594238,0.441345,0.995621,-0.147951,-0.069825,-26.66167,-59.093709,21.835627
1784585397.8144,15:09:57.814,27,false,0.584074,-0.332886,0.593811,0.442078,0.982437,-0.149905,-0.081544,-26.717102,-59.240644,21.850279
1784585397.8455,15:09:57.845,28,false,0.583883,-0.333008,0.593567,0.442566,0.995132,-0.136721,-0.068849,-26.572591,-59.193439,21.788697
1784585397.8768,15:09:57.876,29,false,0.583661,-0.333862,0.592712,0.443359,0.994644,-0.116701,-0.086427,-26.592069,-59.150955,21.867857
1784585397.9082,15:09:57.908,30,false,0.583522,-0.334351,0.592346,0.443665,1.008804,-0.122072,-0.083497,-26.639508,-59.097766,21.849378
1784585397.9395,15:09:57.939,31,false,0.582305,-0.335815,0.591248,0.445618,1.013199,-0.135256,-0.100587,-26.727064,-59.244295,21.787886
1784585397.9708,15:09:57.970,0,false,0.581021,-0.336304,0.590942,0.447327,0.997574,-0.147951,-0.096681,-26.656326,-59.346263,21.83722
1784585398.0022,15:09:58.002,1,false,0.578769,-0.336426,0.59137,0.449585,1.002457,-0.147463,-0.086427,-26.562754,-59.363266,21.806851
1784585398.0335,15:09:58.033,2,false,0.576558,-0.336487,0.592285,0.451172,0.98732,-0.130861,-0.083497,-26.493493,-59.438384,21.794473
1784585398.0649,15:09:58.064,3,false,0.575721,-0.336487,0.592773,0.451599,0.996597,-0.14844,-0.075685,-26.505928,-59.251774,21.858102
1784585398.096,15:09:58.096,4,false,0.572894,-0.337524,0.593384,0.453613,0.985367,-0.150881,-0.053223,-26.307765,-59.203456,21.750876
1784585398.1271,15:09:58.127,5,false,0.57152,-0.338318,0.593323,0.454834,0.989273,-0.157717,-0.060548,-26.383634,-59.145017,21.893634
1784585398.1583,15:09:58.158,6,false,0.570055,-0.338562,0.59314,0.456726,0.982437,-0.166018,-0.044434,-26.3921,-59.032606,21.857623
1784585398.1896,15:09:58.189,7,false,0.569447,-0.338257,0.592957,0.457947,0.983902,-0.179202,-0.062013,-26.324951,-59.080974,21.870076
1784585398.2208,15:09:58.220,8,false,0.56929,-0.337708,0.592712,0.458862,0.989761,-0.186038,-0.073732,-26.27947,-59.004875,21.821467
1784585398.2521,15:09:58.252,9,false,0.569704,-0.336487,0.592346,0.459717,1.013687,-0.184573,-0.087892,-26.178723,-59.056016,21.792674
1784585398.2834,15:09:58.283,10,false,0.570297,-0.335144,0.592773,0.459412,1.006851,-0.178714,-0.091798,-26.117957,-58.862782,21.751806
1784585398.3148,15:09:58.314,11,false,0.570707,-0.333801,0.59375,0.458618,0.991226,-0.15967,-0.097658,-26.003453,-58.673917,21.700071
1784585398.3461,15:09:58.346,12,false,0.570852,-0.332458,0.594788,0.458069,0.983902,-0.164065,-0.084474,-26.124707,-58.862831,21.683417
1784585398.3774,15:09:58.377,13,false,0.57084,-0.332092,0.59491,0.458191,0.984878,-0.157717,-0.074708,-26.233835,-58.778639,21.563751
1784585398.4088,15:09:58.408,14,false,0.570426,-0.332214,0.59491,0.458618,0.991226,-0.179202,-0.083497,-26.287189,-58.777635,21.426145
1784585398.4399,15:09:58.439,15,false,0.570206,-0.332397,0.594971,0.458679,1.006851,-0.180667,-0.07422,-26.3053,-58.701962,21.406976
1784585398.4711,15:09:58.471,16,false,0.569265,-0.333252,0.594971,0.459229,0.990738,-0.156252,-0.066896,-26.3216,-58.828256,21.344862
1784585398.5022,15:09:58.502,17,false,0.568271,-0.334045,0.59491,0.459961,0.994644,-0.164553,-0.06006,-26.276455,-58.732567,21.318868
1784585398.5333,15:09:58.533,18,false,0.56653,-0.334656,0.595093,0.461426,1.009781,-0.151369,-0.071778,-26.325547,-58.73617,21.385196
1784585398.5645,15:09:58.564,19,false,0.56482,-0.334534,0.595459,0.463135,0.982925,-0.177249,-0.062501,-26.324868,-58.799228,21.414983
1784585398.5956,15:09:58.595,20,false,0.563035,-0.33429,0.595764,0.465088,0.98146,-0.172854,-0.06836,-26.369119,-58.975611,21.39693
1784585398.6269,15:09:58.626,21,false,0.561266,-0.332886,0.596069,0.467834,0.981949,-0.205081,-0.078126,-26.289314,-58.939956,21.395637
1784585398.6583,15:09:58.658,22,false,0.560919,-0.331665,0.596069,0.469116,0.972671,-0.214847,-0.070314,-26.322167,-59.057404,21.394472
1784585398.6896,15:09:58.689,23,false,0.561367,-0.330566,0.595825,0.469666,0.973648,-0.207523,-0.061036,-26.411549,-58.998616,21.273794
1784585398.721,15:09:58.721,24,false,0.562818,-0.329346,0.595276,0.469482,0.999039,-0.234379,-0.085451,-26.342455,-59.125152,21.195091
1784585398.7523,15:09:58.752,25,false,0.563954,-0.328247,0.595337,0.468811,0.997086,-0.206546,-0.076661,-26.205501,-59.209128,21.124258
1784585398.7836,15:09:58.783,26,false,0.565349,-0.326172,0.596497,0.467102,0.962417,-0.188968,-0.095216,-26.231781,-59.165075,21.210047
1784585398.8148,15:09:58.814,27,false,0.56665,-0.32489,0.597107,0.465637,0.954604,-0.204105,-0.087892,-26.09094,-59.140381,21.197534
1784585398.8459,15:09:58.845,28,false,0.568411,-0.323181,0.597595,0.46405,0.989761,-0.199222,-0.09131,-26.068861,-59.163018,21.186272
1784585398.8771,15:09:58.877,29,false,0.570262,-0.321106,0.598511,0.462036,1.01564,-0.186526,-0.094728,-26.048989,-59.138529,21.176136
1784585398.9082,15:09:58.908,30,false,0.571287,-0.320618,0.598877,0.460632,0.990249,-0.18262,-0.084962,-25.761936,-59.086582,21.092245
1784585398.9393,15:09:58.939,31,false,0.573009,-0.319153,0.599792,0.458313,0.992203,-0.19678,-0.079103,-25.757803,-59.129553,21.136374
1784585398.9707,15:09:58.970,0,false,0.573474,-0.31897,0.600098,0.457458,0.986343,-0.186526,-0.063478,-25.828853,-59.168227,21.071413
1784585399.002,15:09:59.002,1,false,0.57521,-0.319458,0.600403,0.454529,0.957534,-0.191897,-0.065431,-25.98252,-59.083402,20.997994
1784585399.0333,15:09:59.033,2,false,0.577694,-0.32019,0.599792,0.45166,0.973159,-0.197269,-0.069337,-26.046052,-59.036968,21.066502
1784585399.0647,15:09:59.064,3,false,0.583012,-0.321472,0.598389,0.44574,1.000504,-0.14844,-0.093751,-26.222861,-59.069946,21.023481
1784585399.096,15:09:59.096,4,false,0.586154,-0.323059,0.596863,0.442505,0.994156,-0.100587,-0.097658,-26.262359,-59.024857,20.850179
1784585399.1274,15:09:59.127,5,false,0.588879,-0.323853,0.595825,0.439697,0.982925,-0.106447,-0.103029,-26.267999,-58.909508,20.873653
1784585399.1587,15:09:59.158,6,false,0.591567,-0.325195,0.59436,0.437073,1.020523,-0.106447,-0.106935,-26.198306,-58.98514,20.894779
1784585399.1898,15:09:59.189,7,false,0.592487,-0.325745,0.593994,0.435913,1.014176,-0.099123,-0.092287,-26.285121,-58.97844,20.868931
1784585399.221,15:09:59.221,8,false,0.592395,-0.325928,0.594299,0.435486,0.995621,-0.121584,-0.07422,-26.258577,-58.927548,20.860622
1784585399.2521,15:09:59.252,9,false,0.591261,-0.32605,0.595093,0.435852,0.996597,-0.117678,-0.068849,-26.309457,-58.836883,20.823236
1784585399.2832,15:09:59.283,10,false,0.590344,-0.326538,0.595154,0.436646,0.996597,-0.133791,-0.067384,-26.310387,-58.665563,20.849404
1784585399.3144,15:09:59.314,11,false,0.589948,-0.326599,0.595154,0.437134,1.001968,-0.156252,-0.083009,-26.415902,-58.631004,21.00754
1784585399.3455,15:09:59.345,12,false,0.589819,-0.326477,0.595215,0.437317,0.999527,-0.155764,-0.078126,-26.480957,-58.599902,21.015278
1784585399.3769,15:09:59.376,13,false,0.589396,-0.326294,0.594971,0.438354,1.000504,-0.145022,-0.072755,-26.614276,-58.601818,21.052149
1784585399.4082,15:09:59.408,14,false,0.589084,-0.326294,0.594604,0.43927,0.991226,-0.138186,-0.087404,-26.674447,-58.663357,20.995611
1784585399.4395,15:09:59.439,15,false,0.588715,-0.325928,0.594177,0.440613,0.986343,-0.153323,-0.093263,-26.743556,-58.62902,21.034449
1784585399.4709,15:09:59.470,16,false,0.588505,-0.325928,0.59375,0.441467,1.002945,-0.149416,-0.097658,-26.730984,-58.598116,20.889957
1784585399.5022,15:09:59.502,17,false,0.588315,-0.325806,0.593506,0.442139,0.998062,-0.144533,-0.102052,-26.734623,-58.540395,20.924407
1784585399.5336,15:09:59.533,18,false,0.587745,-0.325928,0.592957,0.443542,0.999039,-0.14551,-0.098146,-26.648175,-58.652938,20.970366
1784585399.5647,15:09:59.564,19,false,0.587579,-0.325867,0.592834,0.44397,0.995621,-0.151858,-0.101076,-26.79468,-58.724319,21.041636
1784585399.5958,15:09:59.595,20,false,0.586975,-0.325928,0.592712,0.444885,0.994156,-0.160159,-0.093263,-26.747088,-58.609116,21.001103
1784585399.627,15:09:59.627,21,false,0.586615,-0.32605,0.592773,0.44519,0.997086,-0.16553,-0.101076,-26.749117,-58.520387,20.979576
1784585399.6581,15:09:59.658,22,false,0.586099,-0.326172,0.593079,0.445374,0.995132,-0.161135,-0.090822,-26.750943,-58.619978,21.109741
1784585399.6892,15:09:59.689,23,false,0.585793,-0.326111,0.593506,0.445251,1.000992,-0.146487,-0.078614,-26.887171,-58.724563,21.137166
1784585399.7206,15:09:59.720,24,false,0.585589,-0.326172,0.593628,0.445313,1.003433,-0.14258,-0.085939,-26.785468,-58.863551,21.161849
1784585399.7519,15:09:59.751,25,false,0.585289,-0.326294,0.593811,0.445374,0.98732,-0.153323,-0.073732,-26.783659,-58.854055,21.09434
1784585399.7833,15:09:59.783,26,false,0.585115,-0.326965,0.593567,0.445435,1.001968,-0.136233,-0.086427,-26.707262,-58.695971,21.183121
1784585399.8146,15:09:59.814,27,false,0.585186,-0.327393,0.593445,0.44519,1.003433,-0.14844,-0.078614,-26.758135,-58.703234,21.263024
1784585399.8459,15:09:59.845,28,false,0.585133,-0.327515,0.593567,0.445007,0.986343,-0.143069,-0.088869,-26.818874,-58.724724,21.125582
1784585399.8773,15:09:59.877,29,false,0.585056,-0.327515,0.593689,0.444946,0.993668,-0.149416,-0.079103,-26.843632,-58.714157,21.076654
1784585399.9084,15:09:59.908,30,false,0.584655,-0.327759,0.594177,0.444641,0.994644,-0.143557,-0.076661,-26.791145,-58.704647,20.927942
1784585399.9397,15:09:59.939,31,false,0.58445,-0.32782,0.594482,0.444458,0.988785,-0.139651,-0.072755,-26.848583,-58.666181,20.898778
1784585399.9709,15:09:59.970,0,false,0.584328,-0.328064,0.594604,0.444275,0.989761,-0.140139,-0.082033,-26.885324,-58.721284,20.782807
1784585400.002,15:10:00.002,1,false,0.584362,-0.328308,0.594482,0.444214,0.997086,-0.149416,-0.072267,-26.873529,-58.726015,20.902741
1784585400.0332,15:10:00.033,2,false,0.584364,-0.328552,0.594299,0.444275,0.997086,-0.145022,-0.086915,-26.833006,-58.805043,21.070497
1784585400.0643,15:10:00.064,3,false,0.584395,-0.328552,0.59436,0.444153,0.986343,-0.148928,-0.080568,-26.946074,-58.801398,20.982216
1784585400.0954,15:10:00.095,4,false,0.584261,-0.328735,0.594299,0.444275,0.980484,-0.144045,-0.072755,-26.98802,-58.783164,21.052301
1784585400.1268,15:10:00.126,5,false,0.584277,-0.328735,0.594238,0.444336,1.00148,-0.140139,-0.083009,-26.801463,-58.662077,21.010701
1784585400.1581,15:10:00.158,6,false,0.584066,-0.328918,0.594116,0.444641,1.012711,-0.150393,-0.082521,-26.85787,-58.478329,21.077938
1784585400.1895,15:10:00.189,7,false,0.583708,-0.329224,0.594116,0.444885,0.993179,-0.158206,-0.080079,-26.84882,-58.582125,21.123498
1784585400.2208,15:10:00.220,8,false,0.583461,-0.329468,0.594177,0.444946,0.984878,-0.155276,-0.082521,-26.900491,-58.55591,21.179455
1784585400.2519,15:10:00.251,9,false,0.583192,-0.329834,0.594055,0.44519,0.982925,-0.142092,-0.070802,-26.946995,-58.592133,21.170001
1784585400.2831,15:10:00.283,10,false,0.583287,-0.330078,0.593872,0.445129,0.997574,-0.148928,-0.081544,-27.078572,-58.53501,21.131585
1784585400.3142,15:10:00.314,11,false,0.58312,-0.330017,0.594116,0.445068,0.996109,-0.166506,-0.07422,-26.897914,-58.453692,21.216641
1784585400.3453,15:10:00.345,12,false,0.583123,-0.329407,0.594543,0.444946,0.992203,-0.140139,-0.082033,-26.780183,-58.335644,21.353007
1784585400.3765,15:10:00.376,13,false,0.583219,-0.329346,0.594482,0.444946,0.998062,-0.140139,-0.071778,-26.913487,-58.393893,21.356106
1784585400.4076,15:10:00.407,14,false,0.583345,-0.329041,0.594482,0.445007,0.989761,-0.149905,-0.07715,-26.868968,-58.476225,21.41871
1784585400.4388,15:10:00.438,15,false,0.583445,-0.327759,0.594727,0.445496,1.008804,-0.151369,-0.08838,-26.858809,-58.550324,21.475053
1784585400.4699,15:10:00.469,16,false,0.583501,-0.326355,0.595215,0.445801,1.003433,-0.131838,-0.082033,-26.774897,-58.691782,21.525763
1784585400.5012,15:10:00.501,17,false,0.583545,-0.325134,0.595337,0.446472,0.986831,-0.145022,-0.077638,-26.804052,-58.714417,21.406909
1784585400.5326,15:10:00.532,18,false,0.583806,-0.325195,0.594727,0.446899,0.986343,-0.147951,-0.086427,-26.770477,-58.794604,21.344802
1784585400.5639,15:10:00.563,19,false,0.584364,-0.325195,0.593994,0.447144,0.991714,-0.152346,-0.095216,-26.695398,-58.762096,21.363675
1784585400.5952,15:10:00.595,20,false,0.584742,-0.325317,0.592957,0.447937,0.994644,-0.166018,-0.101564,-26.657734,-58.747792,21.290938
1784585400.6266,15:10:00.626,21,false,0.584905,-0.325439,0.59259,0.44812,0.994156,-0.158206,-0.086915,-26.71356,-58.899411,21.360059
1784585400.6577,15:10:00.657,22,false,0.584792,-0.326111,0.592102,0.448425,0.996109,-0.168948,-0.087892,-26.703988,-58.976053,21.153098
1784585400.6889,15:10:00.688,23,false,0.584409,-0.326904,0.591858,0.448669,0.997574,-0.140627,-0.083009,-26.785096,-58.925399,21.056557
1784585400.72,15:10:00.720,24,false,0.584208,-0.326904,0.592102,0.448608,1.005875,-0.156741,-0.082033,-26.678647,-58.909719,20.924808
1784585400.7511,15:10:00.751,25,false,0.583804,-0.326965,0.592651,0.448364,0.994156,-0.160647,-0.085451,-26.732381,-59.015238,20.776327
1784585400.7823,15:10:00.782,26,false,0.583718,-0.327148,0.592773,0.448181,0.986831,-0.150881,-0.099611,-26.661112,-59.065343,20.777278
1784585400.8134,15:10:00.813,27,false,0.583631,-0.327393,0.59314,0.447632,0.989273,-0.140139,-0.090333,-26.746507,-59.035668,20.897765
1784585400.8445,15:10:00.844,28,false,0.583382,-0.327698,0.593262,0.447571,1.006851,-0.138674,-0.085939,-26.703733,-59.098684,20.946388
1784585400.8759,15:10:00.875,29,false,0.582706,-0.32843,0.593384,0.447754,1.00441,-0.143069,-0.077638,-26.680189,-59.110537,20.930333
1784585400.9072,15:10:00.907,30,false,0.582306,-0.328918,0.593506,0.447754,1.00441,-0.146487,-0.066407,-26.659,-59.121204,20.990653
1784585400.9386,15:10:00.938,31,false,0.581905,-0.329407,0.593628,0.447754,0.997086,-0.156252,-0.07715,-26.63993,-58.981267,21.044941
1784585400.9699,15:10:00.969,0,false,0.581454,-0.329407,0.594299,0.447449,0.989273,-0.154299,-0.062989,-26.847075,-58.855323,21.019031
1784585401.0012,15:10:01.001,1,false,0.58107,-0.329285,0.594604,0.447632,0.996109,-0.152346,-0.069825,-26.958736,-58.816743,20.891035
1784585401.0326,15:10:01.032,2,false,0.580188,-0.328796,0.595276,0.448242,0.99855,-0.149905,-0.079103,-27.044277,-58.871743,20.835654
1784585401.0637,15:10:01.063,3,false,0.579739,-0.328369,0.595581,0.44873,0.988785,-0.170901,-0.086427,-27.061448,-58.71189,20.800765
1784585401.0949,15:10:01.094,4,false,0.579327,-0.328125,0.595703,0.44928,0.992203,-0.154788,-0.07422,-27.017087,-58.702607,20.679641
1784585401.126,15:10:01.126,5,false,0.57873,-0.327759,0.595886,0.450073,0.999527,-0.1626,-0.083986,-27.022024,-58.769022,20.720169
1784585401.1571,15:10:01.157,6,false,0.578684,-0.327393,0.595947,0.450317,0.988785,-0.161624,-0.084962,-26.966651,-58.88861,20.726736
1784585401.1883,15:10:01.188,7,false,0.578541,-0.327393,0.595947,0.4505,0.996597,-0.183597,-0.080079,-26.842047,-58.801839,20.672831
1784585401.2194,15:10:01.219,8,false,0.578621,-0.327087,0.59613,0.450378,0.994156,-0.161135,-0.075196,-26.864487,-58.783561,20.773855
1784585401.2507,15:10:01.250,9,false,0.57881,-0.327087,0.59613,0.450134,0.988785,-0.172854,-0.078126,-26.660376,-58.662434,20.804961
1784585401.2821,15:10:01.282,10,false,0.579152,-0.327209,0.596008,0.449768,0.992691,-0.155764,-0.072755,-26.641169,-58.568373,21.027357
1784585401.3134,15:10:01.313,11,false,0.57937,-0.327271,0.595947,0.449524,0.994644,-0.168948,-0.078614,-26.653789,-58.513627,21.003205
1784585401.3448,15:10:01.344,12,false,0.579644,-0.327759,0.595642,0.449219,0.992203,-0.146487,-0.078126,-26.665148,-58.359678,20.921653
1784585401.3761,15:10:01.376,13,false,0.579823,-0.328247,0.595337,0.449036,0.987808,-0.151369,-0.081544,-26.705279,-58.385616,20.788441
1784585401.4072,15:10:01.407,14,false,0.580037,-0.328979,0.595093,0.448547,0.982437,-0.139651,-0.079591,-26.846073,-58.259422,20.743319
1784585401.4384,15:10:01.438,15,false,0.580351,-0.329834,0.594727,0.447998,0.995132,-0.120119,-0.079591,-26.733526,-58.205662,20.82234
1784585401.4695,15:10:01.469,16,false,0.580242,-0.331482,0.594238,0.447571,1.006363,-0.121584,-0.074708,-26.721958,-58.067556,20.728967
1784585401.5006,15:10:01.500,17,false,0.578477,-0.335632,0.593445,0.447815,1.000015,-0.103517,-0.075685,-26.711546,-58.047937,20.764562
1784585401.5318,15:10:01.531,18,false,0.57651,-0.339233,0.592712,0.448608,1.000992,-0.116213,-0.066896,-26.627406,-58.075141,20.856413
1784585401.5629,15:10:01.562,19,false,0.57449,-0.342468,0.59198,0.449707,1.01564,-0.126955,-0.061036,-26.775987,-57.979995,20.939079
1784585401.5941,15:10:01.594,20,false,0.570715,-0.345703,0.591003,0.453308,1.00148,-0.119142,-0.065431,-26.700357,-58.028947,20.968616
1784585401.6252,15:10:01.625,21,false,0.567781,-0.346741,0.590637,0.456665,0.993179,-0.138674,-0.069337,-26.781828,-58.073004,20.950339
1784585401.6565,15:10:01.656,22,false,0.563672,-0.347656,0.589905,0.461975,1.000504,-0.169436,-0.074708,-26.825244,-58.112656,20.903981
1784585401.6879,15:10:01.687,23,false,0.56166,-0.347961,0.589294,0.464966,0.980484,-0.201175,-0.073732,-26.78955,-58.028712,20.892167
1784585401.7192,15:10:01.719,24,false,0.560552,-0.348083,0.588684,0.46698,0.986343,-0.201663,-0.070314,-26.847148,-57.983069,20.836673
1784585401.7505,15:10:01.750,25,false,0.560458,-0.348267,0.587646,0.468262,0.972183,-0.176272,-0.059571,-26.71954,-58.046668,20.711959
1784585401.7819,15:10:01.781,26,false,0.560959,-0.348511,0.586731,0.468628,0.984878,-0.179202,-0.069825,-26.679462,-58.074,20.629624
1784585401.813,15:10:01.813,27,false,0.562938,-0.347412,0.585876,0.46814,0.991714,-0.184085,-0.098146,-26.748069,-58.053736,20.555522
1784585401.8442,15:10:01.844,28,false,0.563733,-0.346924,0.585693,0.467773,1.00441,-0.170413,-0.085939,-26.630369,-58.080361,20.488831
1784585401.8753,15:10:01.875,29,false,0.565798,-0.344849,0.585999,0.466431,1.004898,-0.170413,-0.087404,-26.629116,-58.104323,20.324132
1784585401.9064,15:10:01.906,30,false,0.566921,-0.343262,0.58667,0.465393,1.000992,-0.155276,-0.083986,-26.523311,-58.006258,20.430118
1784585401.9376,15:10:01.937,31,false,0.568487,-0.341125,0.587463,0.46405,0.991714,-0.155276,-0.085451,-26.652394,-57.918,20.495598
1784585401.9687,15:10:01.968,0,false,0.569277,-0.340149,0.587891,0.463257,0.991714,-0.1626,-0.090333,-26.648939,-57.80866,20.434899
1784585401.9999,15:10:01.999,1,false,0.569809,-0.339478,0.588196,0.462708,0.989273,-0.159182,-0.086915,-26.49629,-57.710253,20.38027
1784585402.0312,15:10:02.031,2,false,0.570401,-0.338928,0.588562,0.461914,0.991226,-0.165042,-0.075196,-26.64303,-57.711411,20.286242
1784585402.0625,15:10:02.062,3,false,0.570735,-0.338501,0.588867,0.461426,0.98439,-0.164553,-0.078614,-26.71528,-57.876945,20.186664
1784585402.0939,15:10:02.093,4,false,0.570951,-0.338318,0.58905,0.46106,0.996109,-0.158694,-0.080568,-26.600859,-57.876387,20.097043
1784585402.1252,15:10:02.125,5,false,0.571309,-0.338013,0.589355,0.460449,0.98439,-0.164065,-0.076661,-26.512833,-57.9357,20.106107
1784585402.1565,15:10:02.156,6,false,0.571407,-0.338013,0.589355,0.460327,1.008316,-0.160647,-0.087404,-26.538288,-57.839544,20.039496
1784585402.1877,15:10:02.187,7,false,0.571345,-0.33905,0.588867,0.460266,0.993668,-0.133791,-0.070314,-26.486427,-57.753003,19.934684
1784585402.2188,15:10:02.218,8,false,0.571256,-0.339905,0.588318,0.460449,0.988296,-0.072267,-0.068849,-26.54443,-57.660162,19.870261
1784585402.25,15:10:02.250,9,false,0.5695,-0.346863,0.583252,0.463867,1.000504,0.084474,-0.040528,-26.551771,-57.726144,19.916958
1784585402.2811,15:10:02.281,10,false,0.565244,-0.359192,0.574036,0.47113,0.977554,0.136721,-0.076661,-26.573331,-57.680851,19.899169
1784585402.3122,15:10:02.312,11,false,0.553849,-0.387939,0.54895,0.491333,0.985855,0.053223,-0.164065,-26.503013,-57.595226,19.718667
1784585402.3434,15:10:02.343,12,false,0.543209,-0.409485,0.528381,0.507996,1.027848,-0.053223,-0.224125,-26.634126,-57.263948,19.316953
1784585402.3745,15:10:02.374,13,false,0.528754,-0.433044,0.505859,0.526306,1.028336,-0.18262,-0.239261,-26.707266,-56.74149,19.060088
1784585402.4058,15:10:02.405,14,false,0.506905,-0.464966,0.475159,0.548706,1.022965,-0.270512,-0.210452,-26.698323,-55.972201,18.544787
1784585402.4372,15:10:02.437,15,false,0.494335,-0.480347,0.460938,0.55896,1.04152,-0.275883,-0.185061,-26.690275,-54.876087,18.185692
1784585402.4685,15:10:02.468,16,false,0.481388,-0.493591,0.451538,0.566345,1.031266,-0.283207,-0.154299,-26.772754,-53.904538,18.026999
1784585402.4999,15:10:02.499,17,false,0.477435,-0.497375,0.452271,0.565796,1.030777,-0.198734,-0.123049,-26.846986,-53.075006,17.764545
1784585402.5312,15:10:02.531,18,false,0.47596,-0.499268,0.456665,0.561829,1.025895,-0.126955,-0.10547,-26.988563,-52.253658,17.528336
1784585402.5625,15:10:02.562,19,false,0.477763,-0.499146,0.467651,0.55127,0.992691,-0.026368,-0.052247,-27.190752,-51.514445,17.465287
1784585402.5939,15:10:02.593,20,false,0.480667,-0.496948,0.476501,0.543091,0.997086,-0.005371,-0.053712,-27.417584,-50.998691,17.483311
1784585402.6251,15:10:02.625,21,false,0.485627,-0.492126,0.487183,0.533508,0.985855,0.016114,-0.024414,-27.546963,-50.56442,17.60421
1784585402.6562,15:10:02.656,22,false,0.491666,-0.485229,0.500488,0.521851,0.979995,-0.024414,-0.012696,-27.753127,-50.053946,17.802743
1784585402.6874,15:10:02.687,23,false,0.495271,-0.479675,0.508179,0.516113,0.985855,-0.052247,-0.011719,-27.848952,-49.684242,17.891699
1784585402.7185,15:10:02.718,24,false,0.501463,-0.469727,0.518677,0.508789,0.988785,-0.074708,-0.007813,-28.069779,-49.411324,17.986713
1784585402.7499,15:10:02.749,25,false,0.504149,-0.466431,0.521606,0.506165,0.981949,-0.062013,-0.005859,-28.343292,-49.195606,18.146995
1784585402.7812,15:10:02.781,26,false,0.512317,-0.457275,0.528992,0.498596,1.009293,-0.051759,-0.023438,-28.395055,-48.896782,18.216479
1784585402.8125,15:10:02.812,27,false,0.517575,-0.451599,0.533142,0.493896,1.004898,-0.047852,-0.036622,-28.381825,-48.597933,18.234154
1784585402.8439,15:10:02.843,28,false,0.524129,-0.444153,0.538696,0.487671,1.007828,-0.055665,-0.037598,-28.399826,-48.568231,18.369692
1784585402.8752,15:10:02.875,29,false,0.527939,-0.439514,0.542236,0.483826,1.017594,-0.045899,-0.042481,-28.50575,-48.421868,18.50663
1784585402.9066,15:10:02.906,30,false,0.531,-0.435547,0.545532,0.480347,1.006851,-0.042969,-0.04004,-28.541267,-48.305095,18.644828
1784585402.9377,15:10:02.937,31,false,0.534861,-0.43158,0.549072,0.475586,1.008316,-0.063478,-0.022461,-28.558278,-47.960738,18.649575
1784585402.9688,15:10:02.968,0,false,0.536922,-0.429321,0.551147,0.4729,1.01857,-0.061524,-0.039551,-28.588541,-47.964847,18.668801
1784585403.0,15:10:03.000,1,false,0.539224,-0.426392,0.553467,0.470215,1.002945,-0.071778,-0.041993,-28.630732,-47.684423,18.745921
1784585403.0313,15:10:03.031,2,false,0.542308,-0.422607,0.556396,0.466614,1.002457,-0.064454,-0.016602,-28.623843,-47.641394,18.800374
1784585403.0624,15:10:03.062,3,false,0.544293,-0.420349,0.558411,0.463928,1.008804,-0.07715,-0.024414,-28.722319,-47.632576,18.849382
1784585403.0936,15:10:03.093,4,false,0.547091,-0.417236,0.561035,0.460266,1.005386,-0.06006,-0.017578,-28.736179,-47.490056,18.923397
1784585403.1247,15:10:03.124,5,false,0.549111,-0.415405,0.562317,0.457947,0.994644,-0.049317,-0.018555,-28.793514,-47.436556,18.990011
1784585403.1561,15:10:03.156,6,false,0.550957,-0.414001,0.563232,0.455872,1.002945,-0.062013,-0.023926,-28.7853,-47.47813,19.064917
1784585403.1874,15:10:03.187,7,false,0.553419,-0.412048,0.564514,0.453064,1.001968,-0.055665,-0.023926,-28.837723,-47.380962,19.087471
1784585403.2187,15:10:03.218,8,false,0.555075,-0.410522,0.565369,0.451355,1.002457,-0.064454,-0.025391,-28.810134,-47.263603,19.107769
1784585403.2501,15:10:03.250,9,false,0.557423,-0.408142,0.566772,0.448853,1.012711,-0.056153,-0.032715,-28.934843,-47.157979,19.185853
1784585403.2814,15:10:03.281,10,false,0.558145,-0.407349,0.567261,0.448059,1.006363,-0.062013,-0.023926,-29.002219,-47.197503,19.196313
1784585403.3125,15:10:03.312,11,false,0.560077,-0.405457,0.568298,0.446045,1.0215,-0.053223,-0.026368,-28.853504,-47.038674,19.071143
1784585403.3437,15:10:03.343,12,false,0.561608,-0.404175,0.568848,0.44458,1.002457,-0.05713,-0.037598,-28.869199,-47.045267,19.063167
1784585403.3748,15:10:03.374,13,false,0.563809,-0.402161,0.569763,0.442444,1.012222,-0.047364,-0.032715,-29.06277,-47.066154,18.906449
1784585403.406,15:10:03.406,14,false,0.565113,-0.400879,0.570557,0.440918,1.004898,-0.06006,-0.041016,-29.057539,-47.069999,18.780358
1784585403.4371,15:10:03.437,15,false,0.566511,-0.399475,0.571472,0.439209,1.015152,-0.044434,-0.039063,-28.948153,-46.953828,18.771552
1784585403.4682,15:10:03.468,16,false,0.568432,-0.397583,0.572754,0.436768,1.002457,-0.039063,-0.039551,-28.939429,-46.759552,18.673904
1784585403.4994,15:10:03.499,17,false,0.569486,-0.396423,0.573486,0.435486,0.997574,-0.050294,-0.027344,-29.021301,-46.823964,18.750513
1784585403.5307,15:10:03.530,18,false,0.570616,-0.395142,0.574219,0.434204,1.014664,-0.050294,-0.035157,-28.990308,-46.732397,18.714784
1784585403.5621,15:10:03.562,19,false,0.572485,-0.393311,0.574951,0.432434,1.000992,-0.041505,-0.041505,-28.992323,-46.844387,18.787305
1784585403.5934,15:10:03.593,20,false,0.573595,-0.392273,0.575378,0.431335,1.003433,-0.038087,-0.04004,-29.053951,-46.810593,18.897436
1784585403.6247,15:10:03.624,21,false,0.575253,-0.390442,0.575928,0.430054,1.003922,-0.059083,-0.044434,-29.154278,-46.82504,18.682522
1784585403.6561,15:10:03.656,22,false,0.575827,-0.389954,0.57605,0.429565,1.002945,-0.047852,-0.036133,-29.199711,-46.718411,18.623685
1784585403.6873,15:10:03.687,23,false,0.577987,-0.388611,0.576111,0.427795,1.000015,-0.037598,-0.043458,-29.091062,-46.742076,18.6455
1784585403.7186,15:10:03.718,24,false,0.579261,-0.388123,0.576111,0.426514,1.019547,-0.018555,-0.039063,-29.038139,-46.718513,18.635227
1784585403.7498,15:10:03.749,25,false,0.580338,-0.387695,0.576172,0.425354,1.017594,-0.041016,-0.047852,-29.005463,-46.607584,18.566165
1784585403.7809,15:10:03.780,26,false,0.580807,-0.38739,0.576355,0.424744,1.019547,-0.035157,-0.048341,-29.03587,-46.59747,18.563825
1784585403.8121,15:10:03.812,27,false,0.581117,-0.386963,0.576599,0.424377,1.011246,-0.037598,-0.048829,-29.063236,-46.588368,18.561719
1784585403.8432,15:10:03.843,28,false,0.581638,-0.386108,0.577454,0.423279,1.005386,-0.028809,-0.043946,-29.013096,-46.550268,18.634592
1784585403.8743,15:10:03.874,29,false,0.582045,-0.385376,0.578247,0.422302,1.017105,-0.038575,-0.034668,-29.072647,-46.471117,18.759994
1784585403.9057,15:10:03.905,30,false,0.582108,-0.384583,0.579468,0.421265,1.00441,-0.039551,-0.028809,-29.03652,-46.489604,18.723317
1784585403.937,15:10:03.937,31,false,0.582392,-0.384033,0.580078,0.420532,0.997086,-0.026368,-0.030274,-28.94419,-46.566057,18.839846
1784585403.9683,15:10:03.968,0,false,0.582341,-0.38385,0.580383,0.420349,1.00148,-0.04004,-0.040528,-28.935862,-46.485327,18.735369
1784585403.9997,15:10:03.999,1,false,0.582611,-0.383179,0.580688,0.420166,1.015152,-0.041505,-0.039551,-28.853598,-46.562208,18.671247
1784585404.031,15:10:04.031,2,false,0.582907,-0.382568,0.58075,0.420227,1.010758,-0.041016,-0.043458,-28.85433,-46.631401,18.688306
1784585404.0622,15:10:04.062,3,false,0.582905,-0.381958,0.580933,0.420532,1.008804,-0.047364,-0.041016,-28.780219,-46.588998,18.673752
1784585404.0935,15:10:04.093,4,false,0.583375,-0.381348,0.580994,0.420349,1.015152,-0.049317,-0.038087,-28.878012,-46.520928,18.57093
1784585404.1248,15:10:04.124,5,false,0.583577,-0.381226,0.580872,0.420349,0.995132,-0.051759,-0.048341,-29.010886,-46.579295,18.612975
1784585404.156,15:10:04.156,6,false,0.584352,-0.380493,0.58075,0.420105,1.006851,-0.045411,-0.043458,-28.995889,-46.542102,18.710631
1784585404.1871,15:10:04.187,7,false,0.584703,-0.380249,0.580688,0.419922,1.020035,-0.0542,-0.039063,-28.892669,-46.523583,18.708798
1784585404.2183,15:10:04.218,8,false,0.58543,-0.3797,0.580933,0.419067,1.016129,-0.047852,-0.049805,-28.814724,-46.372331,18.647333
1784585404.2494,15:10:04.249,9,false,0.586199,-0.379456,0.580933,0.418213,1.003433,-0.046387,-0.038575,-28.894112,-46.310973,18.666783
1784585404.2807,15:10:04.280,10,false,0.587142,-0.379272,0.580933,0.417053,1.001968,-0.042969,-0.046876,-28.801069,-46.240798,18.639428
1784585404.3121,15:10:04.312,11,false,0.587401,-0.378967,0.581177,0.416626,1.001968,-0.038575,-0.039551,-28.866869,-46.282316,18.435361
1784585404.3434,15:10:04.343,12,false,0.587726,-0.378479,0.581604,0.416016,0.996109,-0.041505,-0.042969,-28.836366,-46.304729,18.40124
1784585404.3747,15:10:04.374,13,false,0.588386,-0.377747,0.582153,0.414978,1.002945,-0.045899,-0.04004,-28.808913,-46.070686,18.235946
1784585404.4061,15:10:04.406,14,false,0.589032,-0.376831,0.582397,0.414551,0.993179,-0.067872,-0.03418,-28.709436,-45.934816,18.266628
1784585404.4372,15:10:04.437,15,false,0.590929,-0.37323,0.583618,0.413391,0.991714,-0.209964,-0.060548,-28.859169,-45.977025,18.339103
1784585404.4684,15:10:04.468,16,false,0.598842,-0.357544,0.589844,0.406982,1.026871,-0.311528,-0.087404,-28.724759,-46.11969,18.224884
1784585404.4997,15:10:04.499,17,false,0.607756,-0.338867,0.598267,0.397339,1.02443,-0.290043,-0.110842,-28.858005,-46.233135,18.181903
1784585404.531,15:10:04.531,18,false,0.62418,-0.301514,0.61615,0.373962,1.035172,-0.234867,-0.149416,-28.783527,-46.66422,18.247897
1784585404.5622,15:10:04.562,19,false,0.629664,-0.288208,0.622681,0.364319,1.043961,-0.069337,-0.147951,-28.806219,-46.917612,18.26243
1784585404.5933,15:10:04.593,20,false,0.644584,-0.249512,0.642761,0.330322,1.00148,0.086427,-0.125978,-28.707012,-47.504557,18.290463
1784585404.6245,15:10:04.624,21,false,0.65489,-0.220215,0.658386,0.298584,0.997086,0.06836,-0.083497,-28.782217,-48.152438,18.719447
1784585404.6558,15:10:04.655,22,false,0.660021,-0.205078,0.666565,0.279297,1.025895,0.119631,-0.05127,-28.700364,-48.959839,19.045717
1784585404.6871,15:10:04.687,23,false,0.662438,-0.195435,0.674438,0.260986,0.995621,0.137697,0.003418,-28.611742,-49.746314,19.563667
1784585404.7185,15:10:04.718,24,false,0.66228,-0.194214,0.676025,0.258179,0.982925,0.057618,0.0,-28.576844,-50.439189,20.089638
1784585404.7498,15:10:04.749,25,false,0.660565,-0.192505,0.678467,0.257446,0.994644,-0.028321,0.001465,-28.590297,-51.017914,20.488243
1784585404.7811,15:10:04.781,26,false,0.65813,-0.19397,0.678711,0.261902,0.994644,-0.043946,0.012696,-28.54259,-51.523813,20.787172
1784585404.8125,15:10:04.812,27,false,0.65428,-0.199829,0.676941,0.271545,0.978042,-0.116213,0.004395,-28.499653,-52.158569,21.160885
1784585404.8438,15:10:04.843,28,false,0.651862,-0.205872,0.674683,0.278381,0.988785,-0.116701,0.000488,-28.475964,-52.789664,21.557042
1784585404.875,15:10:04.875,29,false,0.650176,-0.211426,0.672607,0.283142,1.01857,-0.117189,-0.013184,-28.708859,-53.118388,21.82386
1784585404.9061,15:10:04.906,30,false,0.645912,-0.222961,0.668396,0.293823,1.01564,-0.099611,-0.024903,-28.664249,-53.533871,22.07895
1784585404.9372,15:10:04.937,31,false,0.642086,-0.231934,0.6651,0.302612,1.011246,-0.109377,-0.012696,-28.698869,-53.877897,22.278623
1784585404.9684,15:10:04.968,0,false,0.638378,-0.239868,0.662048,0.310852,1.006363,-0.10547,-0.009277,-28.804797,-54.157613,22.308791
1784585404.9995,15:10:04.999,1,false,0.633116,-0.250427,0.657959,0.321777,1.001968,-0.108888,-0.011231,-28.825362,-54.259819,22.380804
1784585405.0308,15:10:05.030,2,false,0.630002,-0.256531,0.655457,0.328125,0.98732,-0.11426,-0.009277,-28.724241,-54.366759,22.535338
1784585405.0622,15:10:05.062,3,false,0.626023,-0.264404,0.651733,0.336792,0.986831,-0.10547,-0.021485,-28.648185,-54.627497,22.644511
1784585405.0935,15:10:05.093,4,false,0.624783,-0.266968,0.650452,0.339539,1.000504,-0.103029,-0.030274,-28.594689,-54.772437,22.593228
1784585405.1249,15:10:05.124,5,false,0.621398,-0.274353,0.646484,0.347351,1.003433,-0.120607,-0.033692,-28.516634,-54.932792,22.472305
1784585405.1562,15:10:05.156,6,false,0.619456,-0.278992,0.643982,0.351746,1.014664,-0.109865,-0.02295,-28.401524,-55.15188,22.572828
1784585405.1875,15:10:05.187,7,false,0.616474,-0.284729,0.641235,0.357361,1.004898,-0.109865,-0.020508,-28.372694,-55.27429,22.708159
1784585405.2187,15:10:05.218,8,false,0.614259,-0.288086,0.640015,0.360657,1.014664,-0.107912,-0.022461,-28.481331,-55.294737,22.740235
1784585405.2498,15:10:05.249,9,false,0.611564,-0.291687,0.638855,0.36438,1.011246,-0.110842,-0.00293,-28.44452,-55.47763,22.754149
1784585405.281,15:10:05.281,10,false,0.607798,-0.296387,0.637268,0.369629,1.00441,-0.116701,-0.006836,-28.501113,-55.447835,22.736764
1784585405.3121,15:10:05.312,11,false,0.605661,-0.299133,0.636169,0.372803,1.006851,-0.112795,0.003906,-28.552047,-55.525696,22.721118
1784585405.3432,15:10:05.343,12,false,0.603016,-0.303162,0.634399,0.376831,0.995132,-0.131838,-0.015625,-28.56798,-55.745309,22.751898
1784585405.3746,15:10:05.374,13,false,0.60147,-0.305908,0.633057,0.379333,1.008804,-0.107424,0.00293,-28.462689,-55.793422,22.70483
1784585405.4059,15:10:05.405,14,false,0.600332,-0.308228,0.631653,0.381592,0.995132,-0.110353,-0.004883,-28.562327,-55.687186,22.916685
1784585405.4372,15:10:05.437,15,false,0.598612,-0.311646,0.629456,0.385132,1.012222,-0.118654,-0.020508,-28.577232,-55.741112,22.927908
1784585405.4686,15:10:05.468,16,false,0.597327,-0.314087,0.628113,0.387329,1.00734,-0.101076,-0.029297,-28.530831,-55.72983,22.923055
1784585405.4999,15:10:05.499,17,false,0.595964,-0.316223,0.627014,0.389465,1.006363,-0.107912,-0.020508,-28.459162,-55.794445,22.918687
1784585405.5313,15:10:05.531,18,false,0.593986,-0.31897,0.625671,0.392395,1.007828,-0.127932,-0.021973,-28.334845,-55.807737,23.034387
1784585405.5624,15:10:05.562,19,false,0.592649,-0.320618,0.625061,0.394043,1.010269,-0.109377,-0.011231,-28.297729,-55.954285,23.063748
1784585405.5935,15:10:05.593,20,false,0.590481,-0.323059,0.62439,0.396362,1.011246,-0.106935,-0.009277,-28.369001,-55.981501,22.880818
1784585405.6247,15:10:05.624,21,false,0.589629,-0.324036,0.624146,0.397217,0.995621,-0.10547,-0.003906,-28.403239,-56.155533,22.790951
1784585405.6558,15:10:05.655,22,false,0.587399,-0.32605,0.623718,0.399536,1.000504,-0.116213,-0.008789,-28.359283,-56.162624,22.919425
1784585405.6869,15:10:05.686,23,false,0.586083,-0.327209,0.623291,0.401184,0.98732,-0.115724,0.001953,-28.379539,-56.109191,22.870558
1784585405.7181,15:10:05.718,24,false,0.584226,-0.329224,0.622437,0.403564,0.990249,-0.129397,0.001465,-28.24823,-56.210639,22.826579
1784585405.7492,15:10:05.749,25,false,0.583261,-0.330322,0.621887,0.404907,0.988785,-0.132815,-0.019532,-28.324452,-56.137451,22.697274
1784585405.7804,15:10:05.780,26,false,0.582648,-0.331238,0.621338,0.405884,0.990738,-0.12549,-0.013184,-28.303329,-55.981858,22.715484
1784585405.8117,15:10:05.811,27,false,0.581909,-0.332336,0.620605,0.407166,1.011246,-0.125002,-0.019532,-28.32918,-55.991362,22.612243
1784585405.843,15:10:05.843,28,false,0.581286,-0.333252,0.620056,0.408142,1.006363,-0.129885,-0.022461,-28.3674,-55.940101,22.549233
1784585405.8744,15:10:05.874,29,false,0.580715,-0.334106,0.619568,0.408997,1.008804,-0.120607,-0.020508,-28.431705,-56.073413,22.55234
1784585405.9057,15:10:05.905,30,false,0.57991,-0.335022,0.619263,0.409851,1.000015,-0.114748,-0.018067,-28.310134,-56.058808,22.555136
1784585405.9369,15:10:05.936,31,false,0.579218,-0.335999,0.618896,0.410583,1.003922,-0.116213,0.004395,-28.290442,-55.985849,22.512791
1784585405.968,15:10:05.968,0,false,0.578321,-0.337097,0.618408,0.411682,1.005875,-0.110842,-0.016602,-28.571797,-56.1744,22.429819
1784585405.9993,15:10:05.999,1,false,0.578006,-0.337524,0.618225,0.412048,0.988785,-0.107912,-0.008789,-28.52594,-56.23942,22.504682
1784585406.0305,15:10:06.030,2,false,0.577141,-0.339111,0.617432,0.413147,0.997086,-0.128908,-0.016602,-28.679068,-56.402615,22.601967
1784585406.0616,15:10:06.061,3,false,0.576653,-0.34082,0.616455,0.413879,1.010269,-0.136233,-0.009277,-28.53276,-56.310228,22.644662
1784585406.0927,15:10:06.092,4,false,0.57656,-0.342041,0.615784,0.414001,0.999527,-0.123537,-0.011719,-28.50576,-56.376619,22.533549
1784585406.1239,15:10:06.123,5,false,0.576768,-0.343994,0.614746,0.413635,1.000504,-0.128908,-0.025879,-28.451553,-56.361602,22.508317
1784585406.1552,15:10:06.155,6,false,0.57702,-0.344666,0.61438,0.413269,1.010269,-0.127443,-0.007813,-28.432673,-56.422855,22.485607
1784585406.1866,15:10:06.186,7,false,0.57852,-0.345825,0.613586,0.411377,0.974136,-0.164553,-0.01416,-28.490451,-56.373306,22.599754
1784585406.2179,15:10:06.217,8,false,0.580652,-0.346985,0.612305,0.409302,1.002457,-0.171878,-0.024903,-28.542451,-56.328712,22.64267
1784585406.2492,15:10:06.249,9,false,0.586628,-0.351807,0.607971,0.403076,0.958022,-0.198245,-0.022461,-28.574298,-56.183901,22.516802
1784585406.2806,15:10:06.280,10,false,0.593735,-0.359192,0.602173,0.394775,0.962417,-0.183108,-0.033692,-28.617913,-56.083478,22.568013
1784585406.3119,15:10:06.311,11,false,0.60332,-0.370056,0.593811,0.38269,0.969253,-0.146975,-0.035157,-28.702029,-55.798698,22.464565
1784585406.3432,15:10:06.343,12,false,0.6205,-0.388916,0.578613,0.35907,1.00148,0.055177,-0.050782,-28.80764,-55.183504,22.476139
1784585406.3744,15:10:06.374,13,false,0.631721,-0.400696,0.568481,0.342346,1.006363,0.126955,-0.059571,-28.902691,-54.555059,22.381878
1784585406.4055,15:10:06.405,14,false,0.641514,-0.410706,0.559387,0.326904,1.00441,0.25977,-0.04004,-29.033097,-53.615614,22.297043
1784585406.4367,15:10:06.436,15,false,0.652548,-0.421143,0.549377,0.308228,1.003433,0.320806,-0.039551,-29.285048,-52.680389,22.205738
1784585406.4678,15:10:06.467,16,false,0.657587,-0.424622,0.545471,0.299561,0.990738,0.333013,-0.048829,-29.437035,-51.883549,22.153472
1784585406.4989,15:10:06.498,17,false,0.662947,-0.426086,0.542786,0.290405,0.980484,0.341802,-0.037598,-29.573823,-50.912177,22.151293
1784585406.5301,15:10:06.530,18,false,0.664208,-0.426086,0.54248,0.288086,0.979019,0.33106,-0.043946,-29.577301,-49.993081,22.074563
1784585406.5614,15:10:06.561,19,false,0.665986,-0.425415,0.542664,0.284607,0.982437,0.304692,-0.033204,-29.72997,-49.315433,22.080275
1784585406.5927,15:10:06.592,20,false,0.666128,-0.423889,0.544128,0.283752,0.975601,0.304204,-0.029297,-29.792603,-48.735458,22.115324
1784585406.6241,15:10:06.624,21,false,0.665587,-0.421082,0.546265,0.285095,0.963394,0.285649,-0.030274,-29.87888,-48.048988,22.206683
1784585406.6554,15:10:06.655,22,false,0.665469,-0.417969,0.548157,0.286316,0.975113,0.270024,-0.019043,-29.986437,-47.550795,22.348722
1784585406.6868,15:10:06.686,23,false,0.665265,-0.414124,0.550232,0.288391,0.973648,0.265141,-0.038087,-30.202869,-47.102422,22.476557
1784585406.7181,15:10:06.718,24,false,0.664061,-0.405762,0.555054,0.293762,1.014176,0.244633,-0.040528,-30.472428,-46.878332,22.427116
1784585406.7494,15:10:06.749,25,false,0.662154,-0.398621,0.559814,0.298767,1.007828,0.241215,-0.055177,-30.535584,-46.691605,22.352711
1784585406.7806,15:10:06.780,26,false,0.658108,-0.386841,0.568359,0.306946,0.983902,0.206058,-0.044923,-30.622332,-46.732905,22.345562
1784585406.8117,15:10:06.811,27,false,0.654883,-0.379028,0.574158,0.312744,0.995132,0.184573,-0.0542,-30.535913,-46.770074,22.369036
1784585406.8429,15:10:06.842,28,false,0.651502,-0.371521,0.579529,0.318848,0.981949,0.164065,-0.04004,-30.54786,-46.953066,22.390163
1784585406.874,15:10:06.874,29,false,0.647272,-0.362793,0.585144,0.327148,0.964858,0.084474,-0.019043,-30.573565,-47.342065,22.573669
1784585406.9053,15:10:06.905,30,false,0.645401,-0.358337,0.587341,0.331787,0.975113,0.070314,-0.036133,-30.492023,-47.602442,22.619193
1784585406.9367,15:10:06.936,31,false,0.643868,-0.35498,0.588318,0.336609,1.005386,0.053223,-0.044434,-30.403681,-47.971365,22.645212
1784585406.968,15:10:06.968,0,false,0.642678,-0.351013,0.58844,0.342773,0.994156,0.038575,-0.059083,-30.369035,-48.333304,22.593859
1784585406.9993,15:10:06.999,1,false,0.642107,-0.349548,0.587646,0.34668,1.01857,0.030274,-0.07129,-30.143454,-48.629141,22.682226
1784585407.0307,15:10:07.030,2,false,0.641285,-0.348083,0.586365,0.351807,1.015152,0.019532,-0.075685,-30.060061,-49.044933,22.761757
1784585407.062,15:10:07.062,3,false,0.640879,-0.347778,0.585999,0.353455,1.017594,0.024903,-0.076661,-30.059777,-49.493915,22.728657
1784585407.0934,15:10:07.093,4,false,0.639255,-0.347534,0.584839,0.358521,1.012711,0.015137,-0.082521,-29.954845,-49.838183,22.758683
1784585407.1247,15:10:07.124,5,false,0.638153,-0.347961,0.583984,0.36145,1.017105,0.013672,-0.079103,-30.039852,-50.282609,22.725891
1784585407.1558,15:10:07.155,6,false,0.636959,-0.34906,0.582275,0.365234,1.002945,0.013184,-0.083009,-29.89205,-50.562962,22.666471
1784585407.187,15:10:07.187,7,false,0.636269,-0.35022,0.580872,0.367554,0.998062,0.021973,-0.075196,-29.833798,-50.81528,22.6429
1784585407.2181,15:10:07.218,8,false,0.63592,-0.351379,0.579468,0.369263,0.996109,0.024903,-0.082521,-29.826233,-50.997504,22.606732
1784585407.2493,15:10:07.249,9,false,0.63541,-0.35321,0.577271,0.371826,1.022477,0.022461,-0.086427,-29.565209,-51.221321,22.544274
1784585407.2804,15:10:07.280,10,false,0.634724,-0.354309,0.57605,0.37384,1.015152,0.025879,-0.086915,-29.509733,-51.542387,22.517969
1784585407.3117,15:10:07.311,11,false,0.633968,-0.35498,0.575317,0.37561,1.000992,0.018555,-0.101076,-29.385036,-51.831347,22.524202
1784585407.3431,15:10:07.343,12,false,0.63311,-0.35553,0.574524,0.377747,1.003922,0.021973,-0.101076,-29.392439,-51.911964,22.499904
1784585407.3744,15:10:07.374,13,false,0.632402,-0.356018,0.574036,0.379211,0.990738,0.036133,-0.09131,-29.309379,-52.328458,22.537851
1784585407.4057,15:10:07.405,14,false,0.631067,-0.357056,0.573486,0.381287,1.006363,0.030274,-0.104982,-29.264532,-52.523857,22.497235
1784585407.4371,15:10:07.437,15,false,0.630604,-0.357483,0.573242,0.382019,1.014176,0.024414,-0.095705,-29.119494,-52.759531,22.356003
1784585407.4684,15:10:07.468,16,false,0.629245,-0.358337,0.572815,0.384094,1.016617,0.024414,-0.099611,-29.138497,-52.911823,22.40834
1784585407.4998,15:10:07.499,17,false,0.627676,-0.358826,0.572876,0.386108,1.036637,0.008301,-0.097169,-29.080831,-53.1087,22.335813
1784585407.5309,15:10:07.530,18,false,0.625959,-0.358643,0.573425,0.388245,1.021012,0.001953,-0.096681,-28.924255,-53.315798,22.255585
1784585407.562,15:10:07.562,19,false,0.623708,-0.357483,0.574402,0.391479,1.009293,-0.018067,-0.082033,-28.888013,-53.367601,22.168426
1784585407.5932,15:10:07.593,20,false,0.622985,-0.357117,0.574707,0.392517,0.994644,-0.018067,-0.085939,-28.735765,-53.488993,22.239521
1784585407.6243,15:10:07.624,21,false,0.621314,-0.356628,0.574768,0.395508,0.986343,-0.039063,-0.087404,-28.733326,-53.583292,22.318461
1784585407.6554,15:10:07.655,22,false,0.620676,-0.356445,0.574646,0.396851,1.000504,-0.035645,-0.084962,-28.8059,-53.623299,22.284829
1784585407.6868,15:10:07.686,23,false,0.620138,-0.356995,0.573914,0.398254,0.989273,-0.025879,-0.093751,-28.751586,-53.734075,22.314376
1784585407.7181,15:10:07.718,24,false,0.620122,-0.3573,0.573486,0.398621,1.011734,-0.024414,-0.100099,-28.912057,-53.81882,22.221338
1784585407.7495,15:10:07.749,25,false,0.619757,-0.357605,0.573181,0.399353,1.013687,-0.01709,-0.097658,-28.951804,-53.969859,22.346957
1784585407.7808,15:10:07.780,26,false,0.619195,-0.357605,0.572937,0.400574,1.011246,-0.02002,-0.099123,-28.942715,-54.105795,22.430107
1784585407.8121,15:10:07.812,27,false,0.618812,-0.357544,0.572876,0.401306,1.019547,-0.024903,-0.110842,-28.87472,-54.138414,22.34045
1784585407.8435,15:10:07.843,28,false,0.618068,-0.357666,0.572876,0.402344,1.020035,-0.026856,-0.103029,-28.783616,-54.167771,22.259758
1784585407.8748,15:10:07.874,29,false,0.61689,-0.358276,0.57312,0.403259,1.024918,-0.023438,-0.103517,-28.761438,-54.283915,22.202089
1784585407.906,15:10:07.906,30,false,0.615828,-0.359619,0.57312,0.403687,1.01857,-0.014649,-0.100099,-28.771386,-54.388445,22.195049
1784585407.9371,15:10:07.937,31,false,0.614251,-0.362671,0.572632,0.404053,0.997086,-0.011231,-0.086915,-28.780339,-54.43766,22.084035
1784585407.9682,15:10:07.968,0,false,0.613747,-0.363953,0.572144,0.404358,1.000504,-0.009766,-0.082033,-28.683719,-54.377277,22.014031
1784585407.9994,15:10:07.999,1,false,0.612207,-0.366821,0.570923,0.405823,1.010758,-0.014649,-0.07715,-28.596762,-54.397701,22.130473
1784585408.0305,15:10:08.030,2,false,0.611313,-0.368042,0.570313,0.406921,1.004898,-0.009766,-0.083986,-28.488593,-54.356268,22.070779
1784585408.0618,15:10:08.061,3,false,0.610593,-0.369019,0.56958,0.408142,1.003922,-0.016114,-0.083986,-28.58564,-54.28907,22.166593
1784585408.0932,15:10:08.093,4,false,0.610833,-0.370178,0.568481,0.408264,1.012222,-0.007813,-0.086915,-28.628121,-54.2585,22.073379
1784585408.1245,15:10:08.124,5,false,0.611419,-0.371765,0.567078,0.407898,1.019547,-0.020508,-0.097169,-28.785985,-54.275848,22.064256
1784585408.1559,15:10:08.155,6,false,0.612189,-0.374451,0.565002,0.407166,1.026383,-0.011231,-0.113771,-28.883201,-54.141923,21.981276
1784585408.187,15:10:08.187,7,false,0.611657,-0.376221,0.56427,0.407349,1.005386,-0.013672,-0.100099,-28.955742,-54.081206,21.89164
1784585408.2181,15:10:08.218,8,false,0.610482,-0.380127,0.563232,0.406921,1.012222,0.001953,-0.103517,-29.035982,-54.116284,21.825921
1784585408.2495,15:10:08.249,9,false,0.608971,-0.383728,0.562866,0.406311,1.026871,0.028809,-0.091798,-28.988567,-53.863731,21.781729
1784585408.2806,15:10:08.280,10,false,0.60686,-0.389038,0.562073,0.405518,1.017594,0.026856,-0.088869,-28.990756,-53.74111,21.622324
1784585408.3117,15:10:08.311,11,false,0.603307,-0.397522,0.561279,0.403687,1.024918,0.023926,-0.064942,-28.888049,-53.481213,21.688214
1784585408.3429,15:10:08.342,12,false,0.599883,-0.402649,0.561646,0.403198,1.024918,0.028809,-0.03418,-28.930197,-53.262259,21.762469
1784585408.374,15:10:08.374,13,false,0.595918,-0.406555,0.562744,0.403625,1.051286,0.025879,-0.02295,-29.117668,-53.095108,21.87416
1784585408.4052,15:10:08.405,14,false,0.588944,-0.411011,0.565308,0.405762,0.997086,-0.007813,-0.005859,-29.091993,-52.989534,21.974682
1784585408.4365,15:10:08.436,15,false,0.584768,-0.413269,0.566589,0.407715,0.976089,-0.02002,-0.016114,-29.248331,-52.834702,22.035244
1784585408.4678,15:10:08.467,16,false,0.5802,-0.416687,0.567505,0.409485,0.988785,-0.011231,-0.002441,-29.269405,-52.740215,22.134611
1784585408.4992,15:10:08.499,17,false,0.578974,-0.41803,0.567505,0.409851,0.995621,0.018555,-0.000488,-29.348186,-52.7449,22.268903
1784585408.5305,15:10:08.530,18,false,0.575886,-0.422241,0.566956,0.410645,0.982437,0.03711,0.005859,-29.41909,-52.554716,22.464535
1784585408.5619,15:10:08.561,19,false,0.57362,-0.425781,0.566162,0.411255,0.98732,0.065919,0.001465,-29.423088,-52.488227,22.580788
1784585408.5932,15:10:08.593,20,false,0.57039,-0.432251,0.564209,0.411682,0.980972,0.052735,0.001465,-29.516409,-52.219034,22.715324
1784585408.6245,15:10:08.624,21,false,0.568757,-0.436646,0.562561,0.41156,0.973648,0.059571,0.007813,-29.510675,-52.036575,22.806499
1784585408.6557,15:10:08.655,22,false,0.567333,-0.440247,0.561279,0.411438,0.996597,0.06006,0.005371,-29.670006,-51.887316,22.843694
1784585408.6868,15:10:08.686,23,false,0.56486,-0.442993,0.561523,0.41156,1.001968,0.06006,0.015137,-29.813405,-51.603444,22.847263
1784585408.7179,15:10:08.717,24,false,0.563148,-0.443298,0.562866,0.411743,0.985367,0.045899,0.028809,-29.85274,-51.407775,22.925243
1784585408.7491,15:10:08.749,25,false,0.56142,-0.443359,0.564453,0.411865,0.958999,0.015137,0.049317,-29.962911,-51.231673,22.965518
1784585408.7802,15:10:08.780,26,false,0.559554,-0.443298,0.566528,0.411621,0.992691,0.026368,0.051759,-29.987296,-51.073181,22.971858
1784585408.8116,15:10:08.811,27,false,0.559054,-0.443542,0.567627,0.410522,0.997574,0.033692,0.042481,-30.173735,-50.870723,22.992518
1784585408.8429,15:10:08.842,28,false,0.559247,-0.444458,0.568787,0.407654,0.973648,0.0542,0.049317,-30.221899,-50.778234,23.026065
1784585408.8742,15:10:08.874,29,false,0.559586,-0.44458,0.569275,0.406372,1.012711,0.050782,0.044923,-30.16057,-50.754809,23.145981
1784585408.9056,15:10:08.905,30,false,0.560138,-0.443848,0.571899,0.40271,1.004898,0.104982,0.065431,-30.284819,-50.599142,23.19409
1784585408.9369,15:10:08.936,31,false,0.56109,-0.441589,0.57489,0.399597,1.022477,0.086427,0.065919,-30.277013,-50.459041,23.237388
1784585408.9682,15:10:08.968,0,false,0.561272,-0.439148,0.577087,0.398865,1.031266,0.08838,0.076173,-30.344757,-50.332951,23.276356
1784585408.9996,15:10:08.999,1,false,0.560209,-0.432434,0.582153,0.40033,1.048356,0.04004,0.062989,-30.330957,-50.369008,23.28152
1784585409.0307,15:10:09.030,2,false,0.559511,-0.429932,0.584045,0.401245,1.002457,-0.013184,0.075685,-30.48303,-50.281829,23.345982
1784585409.0619,15:10:09.061,3,false,0.557797,-0.422424,0.589539,0.403564,1.01857,-0.023438,0.055665,-30.470357,-50.308044,23.403999
1784585409.093,15:10:09.093,4,false,0.557227,-0.41748,0.592712,0.404846,0.991226,-0.052735,0.068849,-30.458951,-50.361546,23.456213
1784585409.1241,15:10:09.124,5,false,0.557855,-0.411011,0.596008,0.405762,0.983413,-0.066896,0.060548,-30.523455,-50.529328,23.353668
1784585409.1555,15:10:09.155,6,false,0.558923,-0.407532,0.597229,0.406006,1.025406,-0.064454,0.053712,-30.506739,-50.635471,23.515593
1784585409.1868,15:10:09.186,7,false,0.560249,-0.404114,0.598267,0.406067,1.036149,-0.07129,0.03125,-30.461787,-50.805768,23.451971
1784585409.2182,15:10:09.218,8,false,0.561783,-0.400391,0.598999,0.406555,0.977554,-0.079103,0.029297,-30.421331,-50.854359,23.394712
1784585409.2495,15:10:09.249,9,false,0.56306,-0.398071,0.599304,0.406616,1.04152,-0.07422,0.012207,-30.444735,-50.987814,23.358132
1784585409.2808,15:10:09.280,10,false,0.563778,-0.395325,0.600281,0.40686,1.023941,-0.087404,0.022461,-30.435891,-51.048108,23.370072
1784585409.3122,15:10:09.312,11,false,0.564482,-0.391418,0.601929,0.407227,0.995621,-0.083497,0.019532,-30.293348,-51.087418,23.365864
1784585409.3435,15:10:09.343,12,false,0.565248,-0.389343,0.602844,0.406799,0.995132,-0.085451,0.010254,-30.239827,-51.377013,23.332169
1784585409.3748,15:10:09.374,13,false,0.5665,-0.386902,0.604553,0.404846,1.010269,-0.058595,0.025391,-30.146797,-51.398387,23.28689
1784585409.406,15:10:09.406,14,false,0.566854,-0.386353,0.605103,0.404053,0.965835,-0.044923,0.025879,-30.167748,-51.567162,23.17137
1784585409.4371,15:10:09.437,15,false,0.568292,-0.385315,0.606323,0.401184,0.997574,-0.011231,0.034668,-30.231464,-51.644291,23.381432
1784585409.4683,15:10:09.468,16,false,0.569392,-0.384827,0.606689,0.399536,0.99855,-0.011719,0.036133,-30.243948,-51.863244,23.331227
1784585409.4994,15:10:09.499,17,false,0.569897,-0.383789,0.606873,0.399536,0.991714,-0.031739,0.021485,-30.195367,-51.940672,23.43558
1784585409.5305,15:10:09.530,18,false,0.570432,-0.382263,0.606689,0.400513,1.016617,-0.059083,0.023926,-30.121737,-52.040265,23.350052
1784585409.5617,15:10:09.561,19,false,0.570906,-0.379883,0.606567,0.402283,1.029801,-0.07129,0.006836,-29.980701,-52.099991,23.422615
1784585409.593,15:10:09.593,20,false,0.571438,-0.375488,0.606812,0.405273,1.011734,-0.100099,-0.010742,-29.988353,-52.198605,23.398199
1784585409.6244,15:10:09.624,21,false,0.571651,-0.373474,0.606628,0.407104,1.002945,-0.098634,-0.008789,-30.070009,-52.33222,23.346317
1784585409.6557,15:10:09.655,22,false,0.5725,-0.371704,0.606628,0.407532,1.019547,-0.087404,-0.015625,-29.993961,-52.302935,23.179992
1784585409.687,15:10:09.687,23,false,0.573355,-0.371216,0.606201,0.40741,1.026871,-0.079103,-0.013672,-29.850749,-52.351347,22.970485
1784585409.7182,15:10:09.718,24,false,0.573998,-0.37146,0.60614,0.406372,1.004898,-0.058106,-0.004395,-29.811581,-52.484642,22.871651
1784585409.7495,15:10:09.749,25,false,0.57459,-0.372375,0.606079,0.404785,0.995132,-0.03711,0.001953,-29.70156,-52.529837,22.947193
1784585409.7806,15:10:09.780,26,false,0.574749,-0.372925,0.605835,0.404419,1.008804,-0.042481,0.00293,-29.811895,-52.406021,22.820781
1784585409.8118,15:10:09.811,27,false,0.574607,-0.373474,0.605591,0.40448,1.005875,-0.0542,0.007813,-29.836428,-52.474033,22.856548
1784585409.8429,15:10:09.842,28,false,0.574793,-0.373352,0.60553,0.404419,1.022965,-0.070802,-0.00293,-29.813646,-52.505336,22.858831
1784585409.8741,15:10:09.874,29,false,0.575148,-0.372375,0.605713,0.404541,1.016617,-0.061036,-0.020508,-29.718373,-52.563416,22.741255
1784585409.9052,15:10:09.905,30,false,0.577536,-0.372681,0.604553,0.402588,0.9673,-0.106935,-0.013184,-29.557858,-52.690457,22.784975
1784585409.9365,15:10:09.936,31,false,0.580006,-0.374695,0.602844,0.399719,0.966323,-0.191409,-0.033204,-29.547979,-52.744979,22.914046
1784585409.9679,15:10:09.967,0,false,0.591363,-0.390747,0.592346,0.383057,1.047379,-0.075196,-0.052247,-29.70358,-52.704326,22.790948
1784585409.9992,15:10:09.999,1,false,0.599223,-0.404907,0.584595,0.367737,1.091814,0.016114,-0.032227,-29.664175,-52.458384,22.799791
1784585410.0305,15:10:10.030,2,false,0.601597,-0.420044,0.581787,0.350952,1.190448,0.261234,-0.021485,-29.808156,-51.86319,22.732981
1784585410.0619,15:10:10.061,3,false,0.594995,-0.421448,0.588623,0.349121,1.020523,0.379889,0.055665,-30.05737,-51.372377,22.882205
1784585410.0932,15:10:10.093,4,false,0.586162,-0.420471,0.597107,0.35083,0.987808,0.343755,0.075685,-30.162032,-51.06523,22.986599
1784585410.1246,15:10:10.124,5,false,0.568181,-0.412231,0.614136,0.360657,0.865736,0.106935,0.187503,-30.22632,-50.938337,23.215138
1784585410.1557,15:10:10.155,6,false,0.556676,-0.40509,0.623901,0.369812,0.795422,-0.069825,0.217777,-30.388857,-50.794224,23.495593
1784585410.1868,15:10:10.186,7,false,0.551821,-0.404663,0.62616,0.373718,0.854017,-0.31104,0.201175,-30.535139,-50.948646,23.927448
1784585410.218,15:10:10.218,8,false,0.554023,-0.412109,0.620422,0.371887,1.01564,-0.169924,0.142092,-30.517255,-51.012857,24.241349
1784585410.2491,15:10:10.249,9,false,0.558086,-0.417297,0.614746,0.369446,1.064958,-0.071778,0.125002,-30.650698,-50.995877,24.44909
1784585410.2803,15:10:10.280,10,false,0.561343,-0.418396,0.611023,0.369446,1.077653,0.084474,0.093263,-30.770796,-50.950688,24.456611
1784585410.3114,15:10:10.311,11,false,0.561372,-0.417297,0.611267,0.370239,1.032731,0.119631,0.064942,-30.774208,-50.835249,24.612918
1784585410.3427,15:10:10.342,12,false,0.55881,-0.410645,0.61554,0.374451,0.983413,0.094728,0.066407,-30.807186,-50.731353,24.783502
1784585410.3741,15:10:10.374,13,false,0.554759,-0.405151,0.620361,0.378479,0.875013,-0.001953,0.098146,-30.866774,-50.72757,24.966936
1784585410.4054,15:10:10.405,14,false,0.553962,-0.406799,0.619995,0.378479,0.954116,-0.134768,0.096193,-31.010127,-50.85875,25.221749
1784585410.4367,15:10:10.436,15,false,0.558207,-0.41394,0.61499,0.37262,0.974136,-0.104005,0.105959,-30.989605,-50.797365,25.226773
1784585410.4681,15:10:10.468,16,false,0.559886,-0.415649,0.613342,0.370911,1.056168,0.017578,0.100099,-31.075813,-50.697258,25.276157
1784585410.4994,15:10:10.499,17,false,0.564391,-0.415344,0.611328,0.367737,1.064469,0.089357,0.07715,-31.198261,-50.577254,25.425279
1784585410.5306,15:10:10.530,18,false,0.566594,-0.411499,0.612549,0.366638,1.012711,0.099123,0.079103,-31.188834,-50.394481,25.335181
1784585410.5617,15:10:10.561,19,false,0.568112,-0.4021,0.616821,0.367554,1.013687,0.056153,0.078614,-31.225211,-50.409431,25.328862
1784585410.5928,15:10:10.592,20,false,0.569626,-0.395691,0.619202,0.368164,0.928237,-0.041016,0.093751,-31.317766,-50.288302,25.338129
1784585410.624,15:10:10.624,21,false,0.573199,-0.39209,0.618774,0.367188,0.943862,-0.081056,0.102052,-31.296389,-50.388639,25.376377
1784585410.6551,15:10:10.655,22,false,0.582154,-0.391113,0.613892,0.362305,0.98732,-0.050782,0.056641,-31.351918,-50.329405,25.336031
1784585410.6865,15:10:10.686,23,false,0.589413,-0.391052,0.609924,0.3573,1.042008,-0.003906,0.044923,-31.46171,-50.440586,25.344581
1784585410.7178,15:10:10.717,24,false,0.595174,-0.389404,0.6073,0.354004,1.093278,0.102541,0.023926,-31.455846,-50.39111,25.352276
1784585410.7491,15:10:10.749,25,false,0.599364,-0.381836,0.608765,0.352661,1.043473,0.153811,0.017578,-31.315983,-50.301721,25.269478
1784585410.7805,15:10:10.780,26,false,0.599842,-0.376038,0.611084,0.354065,1.019547,0.099123,0.030762,-31.220015,-50.325947,25.030468
1784585410.8117,15:10:10.811,27,false,0.599981,-0.366577,0.614624,0.357605,0.917983,0.013184,0.029297,-31.193458,-50.437474,24.964897
1784585410.8428,15:10:10.842,28,false,0.601335,-0.364746,0.614319,0.357727,0.879408,-0.088869,0.034668,-30.900389,-50.463079,24.950745
1784585410.8742,15:10:10.874,29,false,0.610012,-0.365417,0.60791,0.353271,1.006363,-0.093263,-0.004395,-30.816072,-50.545938,24.773516
1784585410.9053,15:10:10.905,30,false,0.617209,-0.369141,0.601318,0.348145,1.088884,-0.027344,-0.024903,-30.964494,-50.620512,24.584102
1784585410.9365,15:10:10.936,31,false,0.622409,-0.370117,0.597595,0.344238,1.10695,0.13135,-0.046876,-30.96349,-50.627813,24.488399
1784585410.9676,15:10:10.967,0,false,0.622407,-0.367981,0.598389,0.345154,1.043473,0.1626,-0.036133,-30.932679,-50.679246,24.267681
1784585410.9987,15:10:10.998,1,false,0.621268,-0.363586,0.600769,0.347717,1.047868,0.158206,-0.027832,-30.919902,-50.635812,24.08399
1784585411.0299,15:10:11.029,2,false,0.616057,-0.352783,0.608032,0.355408,0.947768,0.069337,0.012696,-30.833634,-50.656537,24.023344
1784585411.061,15:10:11.061,3,false,0.612003,-0.345398,0.613037,0.361023,0.945815,0.004395,0.021973,-30.651316,-50.809774,24.103347
1784585411.0923,15:10:11.092,4,false,0.609136,-0.339478,0.616333,0.365845,0.892592,-0.077638,0.033692,-30.696583,-51.03741,23.98095
1784585411.1237,15:10:11.123,5,false,0.610375,-0.334351,0.61499,0.370728,0.935073,-0.134279,0.009766,-30.572832,-51.302098,23.945562
1784585411.155,15:10:11.155,6,false,0.614204,-0.332397,0.611267,0.372314,0.989273,-0.115236,-0.014649,-30.416594,-51.719764,23.809036
1784585411.1864,15:10:11.186,7,false,0.621179,-0.329773,0.605164,0.373047,1.07277,-0.053712,-0.07715,-30.186257,-51.901262,23.671208
1784585411.2177,15:10:11.217,8,false,0.624545,-0.327576,0.602661,0.373413,1.043961,-0.058106,-0.083986,-30.098584,-52.094519,23.412579
1784585411.249,15:10:11.249,9,false,0.626504,-0.324951,0.601746,0.373901,1.064958,-0.03418,-0.107912,-29.989771,-52.253496,23.299444
1784585411.2802,15:10:11.280,10,false,0.627342,-0.320984,0.602356,0.374939,1.013687,-0.059571,-0.092287,-29.802116,-52.561068,23.257437
1784585411.3113,15:10:11.311,11,false,0.627262,-0.31897,0.603394,0.375122,1.025406,-0.068849,-0.08838,-29.767811,-52.897698,23.159816
1784585411.3425,15:10:11.342,12,false,0.626698,-0.317444,0.604858,0.375,0.99855,-0.036133,-0.072267,-29.617306,-53.200665,23.042049
1784585411.3736,15:10:11.373,13,false,0.626553,-0.317322,0.605225,0.374756,0.985855,-0.023438,-0.064454,-29.541667,-53.518197,23.025782
1784585411.4047,15:10:11.404,14,false,0.626571,-0.317932,0.605225,0.374207,0.982437,-0.025879,-0.067384,-29.458638,-53.714252,22.981234
1784585411.4359,15:10:11.435,15,false,0.626898,-0.318726,0.604431,0.374268,1.006851,-0.018067,-0.067872,-29.443727,-53.800979,22.971048
1784585411.4672,15:10:11.467,16,false,0.626948,-0.320007,0.602905,0.375549,0.997574,-0.066896,-0.062501,-29.370492,-53.968756,22.902066
1784585411.4985,15:10:11.498,17,false,0.626812,-0.320862,0.601868,0.376709,1.010758,-0.067384,-0.063966,-29.229811,-54.119756,22.839981
1784585411.5299,15:10:11.529,18,false,0.626968,-0.321411,0.600952,0.377441,1.005875,-0.075196,-0.074708,-29.103198,-54.255655,22.858875
1784585411.5612,15:10:11.561,19,false,0.627165,-0.321594,0.600342,0.37793,0.996109,-0.029297,-0.049317,-28.824754,-54.392919,22.890833
1784585411.5926,15:10:11.592,20,false,0.626978,-0.322632,0.600403,0.377258,1.003922,-0.037598,-0.050782,-28.768555,-54.546364,22.934549
1784585411.6239,15:10:11.623,21,false,0.62655,-0.325134,0.600342,0.375916,1.003922,-0.030274,-0.047364,-28.673114,-54.774187,22.988847
1784585411.655,15:10:11.655,22,false,0.626373,-0.329041,0.599731,0.373779,1.008316,-0.047852,-0.050782,-28.691894,-54.979228,23.007808
1784585411.6862,15:10:11.686,23,false,0.626659,-0.329468,0.599426,0.373413,0.985367,-0.044923,-0.05713,-28.693842,-54.954411,22.965057
1784585411.7173,15:10:11.717,24,false,0.628557,-0.32843,0.598083,0.373291,1.012711,-0.031739,-0.052735,-28.63578,-55.066661,23.016304
1784585411.7484,15:10:11.748,25,false,0.629486,-0.328247,0.597168,0.373352,1.022477,-0.030762,-0.084474,-28.64334,-55.003193,23.047473
1784585411.7796,15:10:11.779,26,false,0.633051,-0.329285,0.592773,0.373413,1.039078,-0.015625,-0.119631,-28.680051,-55.09561,23.000756
1784585411.8107,15:10:11.810,27,false,0.635128,-0.330688,0.590149,0.372803,1.036149,0.009277,-0.108888,-28.832722,-54.954478,23.108249
1784585411.8421,15:10:11.842,28,false,0.635206,-0.334167,0.588257,0.372559,1.040543,0.019043,-0.119142,-28.91031,-55.02186,23.115269
1784585411.8734,15:10:11.873,29,false,0.632607,-0.337036,0.58783,0.375061,1.008316,0.003906,-0.102052,-28.920324,-55.11241,23.106634
1784585411.9047,15:10:11.904,30,false,0.631576,-0.337891,0.587708,0.376221,1.004898,-0.007813,-0.090333,-28.854568,-54.999506,23.054001
1784585411.9361,15:10:11.936,31,false,0.628493,-0.340759,0.587158,0.379639,1.000015,-0.01416,-0.07129,-28.825295,-55.107246,23.141215
1784585411.9674,15:10:11.967,0,false,0.626429,-0.342896,0.586853,0.381592,0.989761,-0.008301,-0.059083,-28.813903,-55.069627,23.189801
1784585411.9988,15:10:11.998,1,false,0.623402,-0.346436,0.586365,0.384094,0.994644,0.008789,-0.072755,-28.893373,-55.245124,23.083989
1784585412.0301,15:10:12.030,2,false,0.621212,-0.348816,0.585754,0.386414,0.988785,0.003418,-0.058595,-28.740589,-55.283441,23.063528
1784585412.0612,15:10:12.061,3,false,0.61936,-0.350586,0.584961,0.388977,0.980972,-0.021485,-0.069337,-28.647945,-55.288018,23.104928
1784585412.0924,15:10:12.092,4,false,0.617962,-0.35199,0.583435,0.392212,1.006851,-0.023438,-0.078614,-28.669242,-55.187461,23.142189
1784585412.1235,15:10:12.123,5,false,0.617756,-0.352234,0.582642,0.393494,1.030777,-0.026856,-0.092287,-28.688409,-55.156775,23.220584
1784585412.1546,15:10:12.154,6,false,0.617495,-0.352234,0.582092,0.394714,1.034195,-0.03125,-0.097169,-28.600982,-55.203926,23.291141
1784585412.1858,15:10:12.185,7,false,0.616245,-0.352234,0.582214,0.396484,1.01564,-0.009766,-0.083497,-28.537253,-55.410855,23.220057
1784585412.2171,15:10:12.217,8,false,0.61497,-0.352539,0.582336,0.39801,1.009781,-0.01709,-0.087892,-28.689249,-55.47746,23.290666
1784585412.2485,15:10:12.248,9,false,0.613287,-0.353271,0.582581,0.399597,1.008316,-0.042969,-0.078126,-28.841,-55.627127,23.369167
1784585412.2798,15:10:12.279,10,false,0.612612,-0.353821,0.582581,0.400146,1.006851,-0.029786,-0.072267,-28.828038,-55.687059,23.290281
1784585412.3111,15:10:12.311,11,false,0.610813,-0.355469,0.582458,0.401611,1.010269,-0.03125,-0.066407,-28.846279,-55.740998,23.189375
1784585412.3423,15:10:12.342,12,false,0.609507,-0.356934,0.582214,0.402649,0.991714,-0.033692,-0.063478,-28.907558,-55.789542,23.128468
1784585412.3734,15:10:12.373,13,false,0.608129,-0.358765,0.581726,0.403809,1.00441,-0.029786,-0.060548,-28.828125,-55.848186,23.133466
1784585412.4045,15:10:12.404,14,false,0.607234,-0.360107,0.581238,0.404663,0.997574,-0.045411,-0.056153,-28.756634,-55.751427,23.063196
1784585412.4357,15:10:12.435,15,false,0.606755,-0.361084,0.58075,0.405212,1.002945,-0.029297,-0.062013,-28.707247,-55.72416,23.014906
1784585412.4668,15:10:12.466,16,false,0.606118,-0.362183,0.580261,0.405884,1.016129,-0.039551,-0.069825,-28.842244,-55.609896,23.061169
1784585412.498,15:10:12.498,17,false,0.6058,-0.362305,0.580261,0.40625,1.009781,-0.041993,-0.064454,-28.784296,-55.492105,23.087851
1784585412.5291,15:10:12.529,18,false,0.605277,-0.362366,0.580383,0.406799,1.002945,-0.04004,-0.070802,-28.836819,-55.505723,22.947373
1784585412.5602,15:10:12.560,19,false,0.605031,-0.362366,0.580383,0.407166,1.013199,-0.046387,-0.064454,-28.899044,-55.547888,22.910666
1784585412.5916,15:10:12.591,20,false,0.604815,-0.362549,0.580322,0.40741,1.002945,-0.042969,-0.062013,-28.670924,-55.630697,22.787906
1784585412.6229,15:10:12.622,21,false,0.6048,-0.362488,0.580505,0.407227,1.01564,-0.039551,-0.065431,-28.585246,-55.675318,22.826961
1784585412.6543,15:10:12.654,22,false,0.604819,-0.362427,0.580566,0.407166,1.00441,-0.027832,-0.065431,-28.552997,-55.655661,22.74248
1784585412.6856,15:10:12.685,23,false,0.604643,-0.362915,0.580444,0.407166,0.998062,-0.039063,-0.053223,-28.62865,-55.652924,22.756169
1784585412.7169,15:10:12.716,24,false,0.604589,-0.363464,0.5802,0.407104,1.017594,-0.034668,-0.072755,-28.621969,-55.650461,22.798398
1784585412.7483,15:10:12.748,25,false,0.604343,-0.363892,0.580017,0.407349,1.007828,-0.036622,-0.075196,-28.660817,-55.708059,22.671911
1784585412.7796,15:10:12.779,26,false,0.604317,-0.364197,0.579895,0.407288,0.995621,-0.029297,-0.071778,-28.621012,-55.685128,22.632843
1784585412.8107,15:10:12.810,27,false,0.604337,-0.364136,0.579956,0.407227,1.000992,-0.020508,-0.066407,-28.659956,-55.589722,22.702358
1784585412.8419,15:10:12.841,28,false,0.604204,-0.364075,0.580261,0.407043,1.003922,-0.029786,-0.061036,-28.650144,-55.414132,22.779875
1784585412.873,15:10:12.873,29,false,0.604069,-0.364075,0.580444,0.406982,0.995621,-0.028321,-0.065431,-28.596452,-55.48041,22.670194
1784585412.9042,15:10:12.904,30,false,0.603766,-0.364624,0.5802,0.407288,1.012222,-0.03418,-0.049805,-28.47336,-55.420428,22.511667
1784585412.9353,15:10:12.935,31,false,0.60374,-0.364502,0.580261,0.407349,1.0215,-0.044923,-0.062501,-28.527069,-55.426261,22.51853
1784585412.9664,15:10:12.966,0,false,0.603718,-0.364441,0.580322,0.407349,1.000992,-0.036133,-0.064454,-28.605315,-55.416556,22.554615
1784585412.9978,15:10:12.997,1,false,0.603807,-0.364197,0.580383,0.407349,1.022477,-0.027832,-0.062989,-28.556106,-55.437729,22.587091
1784585413.0291,15:10:13.029,2,false,0.604118,-0.36377,0.580627,0.406921,1.020523,-0.021485,-0.076173,-28.571633,-55.292293,22.631274
1784585413.0604,15:10:13.060,3,false,0.604195,-0.363525,0.580872,0.406677,1.01564,-0.025391,-0.0542,-28.585607,-55.281031,22.805622
1784585413.0918,15:10:13.091,4,false,0.603994,-0.363342,0.581238,0.406616,1.003922,-0.025391,-0.056641,-28.672953,-55.300804,22.723275
1784585413.1231,15:10:13.123,5,false,0.603654,-0.363281,0.581543,0.406738,1.00734,-0.032227,-0.063966,-28.61698,-55.333552,22.7987
1784585413.1545,15:10:13.154,6,false,0.602566,-0.362732,0.582458,0.407532,1.002457,-0.038087,-0.058106,-28.611466,-55.363026,22.761907
1784585413.1856,15:10:13.185,7,false,0.60231,-0.362549,0.582581,0.407898,1.012711,-0.04004,-0.042969,-28.561641,-55.389552,22.698884
1784585413.2167,15:10:13.216,8,false,0.60152,-0.361877,0.58313,0.408875,1.011734,-0.050294,-0.060548,-28.501845,-55.368565,22.761795
1784585413.2479,15:10:13.247,9,false,0.600991,-0.361267,0.583496,0.409668,1.000015,-0.038575,-0.054688,-28.507845,-55.469306,22.773554
1784585413.279,15:10:13.279,10,false,0.600417,-0.360718,0.58374,0.410645,1.009293,-0.041505,-0.061524,-28.588013,-55.530066,22.784136
1784585413.3102,15:10:13.310,11,false,0.599951,-0.360352,0.583801,0.41156,1.008316,-0.044923,-0.057618,-28.660165,-55.58475,22.674029
1784585413.3415,15:10:13.341,12,false,0.599846,-0.360107,0.583801,0.411926,1.002945,-0.058595,-0.07129,-28.755009,-55.708735,22.649703
1784585413.3728,15:10:13.372,13,false,0.599502,-0.359253,0.583862,0.413086,1.002457,-0.058106,-0.063966,-28.660922,-55.850229,22.597901
1784585413.4042,15:10:13.404,14,false,0.599458,-0.358337,0.584167,0.413513,1.00148,-0.076173,-0.062989,-28.680922,-55.947666,22.581187
1784585413.4355,15:10:13.435,15,false,0.600306,-0.357239,0.584229,0.413147,1.010269,-0.061524,-0.076173,-28.609198,-56.050313,22.655868
1784585413.4668,15:10:13.466,16,false,0.600764,-0.356934,0.58429,0.412659,1.010269,-0.046876,-0.064454,-28.619416,-56.142695,22.693172
1784585413.4982,15:10:13.498,17,false,0.60109,-0.356995,0.584045,0.412476,0.995621,-0.042969,-0.070802,-28.494027,-56.091255,22.562254
1784585413.5295,15:10:13.529,18,false,0.601265,-0.356812,0.584106,0.412292,1.015152,-0.050782,-0.070802,-28.4709,-56.074866,22.713598
1784585413.5607,15:10:13.560,19,false,0.601348,-0.356873,0.583984,0.412292,1.000015,-0.052247,-0.052735,-28.450086,-56.164793,22.745129
1784585413.5918,15:10:13.591,20,false,0.601642,-0.357117,0.583618,0.41217,1.000504,-0.072267,-0.062989,-28.461261,-56.230773,22.758554
1784585413.6229,15:10:13.622,21,false,0.602869,-0.357117,0.582825,0.411499,1.002945,-0.063966,-0.075196,-28.441411,-56.23034,22.845406
1784585413.6541,15:10:13.654,22,false,0.603689,-0.357361,0.582214,0.41095,0.997086,-0.050294,-0.067384,-28.558131,-56.095366,22.848803
1784585413.6852,15:10:13.685,23,false,0.60491,-0.3573,0.581543,0.410156,1.017594,-0.036622,-0.073732,-28.379055,-55.958936,22.866814
1784585413.7164,15:10:13.716,24,false,0.605229,-0.357239,0.581421,0.409912,0.999527,-0.030274,-0.076661,-28.367426,-55.985686,22.883024
1784585413.7477,15:10:13.747,25,false,0.605774,-0.357483,0.581177,0.409241,0.991226,-0.039551,-0.074708,-28.327052,-55.934993,22.897613
1784585413.779,15:10:13.779,26,false,0.605932,-0.357849,0.580872,0.409119,1.008316,-0.033692,-0.074708,-28.35053,-55.874415,22.850928
1784585413.8104,15:10:13.810,27,false,0.605833,-0.358093,0.580566,0.409485,1.011246,-0.03125,-0.078614,-28.416522,-55.954479,22.76405
1784585413.8417,15:10:13.841,28,false,0.605593,-0.358459,0.580505,0.409607,1.017105,-0.045411,-0.066407,-28.431054,-55.966722,22.805491
1784585413.8728,15:10:13.872,29,false,0.60542,-0.358948,0.580383,0.409607,0.993179,-0.044434,-0.076661,-28.593671,-55.902971,22.663341
1784585413.904,15:10:13.904,30,false,0.605119,-0.360046,0.580017,0.409607,1.021012,-0.033692,-0.068849,-28.530672,-55.905411,22.520452
1784585413.9351,15:10:13.935,31,false,0.604833,-0.360596,0.580017,0.409546,1.002457,-0.041505,-0.072755,-28.623511,-55.832837,22.526437
1784585413.9663,15:10:13.966,0,false,0.604792,-0.360596,0.580017,0.409607,1.003922,-0.060548,-0.062989,-28.647252,-55.857244,22.51687
1784585413.9974,15:10:13.997,1,false,0.604651,-0.360596,0.580078,0.409729,1.012711,-0.048829,-0.075196,-28.63871,-55.759579,22.403582
1784585414.0285,15:10:14.028,2,false,0.604582,-0.360474,0.580139,0.409851,1.00734,-0.029297,-0.06836,-28.631023,-55.791312,22.451162
1784585414.0597,15:10:14.059,3,false,0.60516,-0.359497,0.580444,0.409424,1.006363,-0.041016,-0.076173,-28.698874,-55.819871,22.493983
1784585414.091,15:10:14.091,4,false,0.605519,-0.358765,0.580566,0.409363,1.005875,-0.030274,-0.076173,-28.68517,-55.696036,22.532523
1784585414.1223,15:10:14.122,5,false,0.605678,-0.357849,0.58075,0.409668,1.004898,-0.03418,-0.079103,-28.613021,-55.674308,22.507393
1784585414.1537,15:10:14.153,6,false,0.605396,-0.355896,0.581726,0.4104,0.995621,-0.037598,-0.06836,-28.71258,-55.789337,22.574499
1784585414.185,15:10:14.185,7,false,0.605124,-0.355225,0.582031,0.41095,1.020035,-0.035645,-0.067384,-28.667598,-55.80314,22.470402
1784585414.2164,15:10:14.216,8,false,0.604703,-0.354492,0.582397,0.411682,1.01857,-0.044434,-0.076173,-28.537391,-55.785655,22.391669
1784585414.2477,15:10:14.247,9,false,0.604454,-0.354492,0.582397,0.412048,1.00148,-0.0542,-0.077638,-28.420205,-55.844688,22.320809
1784585414.2788,15:10:14.278,10,false,0.604026,-0.354553,0.582458,0.412537,1.005386,-0.061036,-0.064942,-28.524091,-55.98754,22.346758
1784585414.31,15:10:14.310,11,false,0.603817,-0.354797,0.582397,0.41272,0.999527,-0.050294,-0.075685,-28.54282,-56.011431,22.414974
1784585414.3411,15:10:14.341,12,false,0.603611,-0.355347,0.582275,0.41272,1.009293,-0.049805,-0.068849,-28.395183,-56.047886,22.461414
1784585414.3723,15:10:14.372,13,false,0.603629,-0.35553,0.582275,0.412537,1.004898,-0.061036,-0.073243,-28.411848,-55.931157,22.533118
1784585414.4034,15:10:14.403,14,false,0.603653,-0.35553,0.582336,0.412415,1.005875,-0.039063,-0.076661,-28.352078,-55.766286,22.62756
1784585414.4345,15:10:14.434,15,false,0.603151,-0.355957,0.582336,0.412781,1.005875,-0.053223,-0.058106,-28.373054,-55.677717,22.60788
1784585414.4657,15:10:14.465,16,false,0.602921,-0.356262,0.582214,0.413025,1.01564,-0.056641,-0.073243,-28.362025,-55.65782,22.679891
1784585414.497,15:10:14.497,17,false,0.602695,-0.356506,0.581909,0.413574,1.005875,-0.049317,-0.07129,-28.352098,-55.639914,22.669932
1784585414.5283,15:10:14.528,18,false,0.602531,-0.356201,0.582092,0.413818,1.025895,-0.051759,-0.075196,-28.238488,-55.519121,22.70583
1784585414.5597,15:10:14.559,19,false,0.602091,-0.356262,0.582336,0.414063,1.013199,-0.039551,-0.065919,-28.151192,-55.604807,22.573647
1784585414.591,15:10:14.591,20,false,0.601437,-0.356201,0.582703,0.414551,0.999039,-0.06006,-0.064454,-28.057672,-55.66697,22.574312
1784585414.6224,15:10:14.622,21,false,0.601274,-0.356262,0.582703,0.414734,1.011734,-0.064454,-0.067384,-27.95855,-55.707964,22.559957
1784585414.6537,15:10:14.653,22,false,0.601104,-0.356506,0.582642,0.414856,1.016617,-0.062013,-0.076661,-27.974017,-55.699997,22.51713
1784585414.6849,15:10:14.684,23,false,0.601237,-0.356567,0.582642,0.414612,0.997086,-0.066896,-0.063478,-28.002891,-55.82741,22.523447
1784585414.7161,15:10:14.716,24,false,0.601627,-0.356689,0.582642,0.41394,1.000504,-0.058106,-0.070314,-27.998971,-56.016852,22.499225
1784585414.7472,15:10:14.747,25,false,0.601861,-0.356934,0.582336,0.413818,1.013687,-0.041505,-0.072755,-28.070211,-56.082673,22.477425
1784585414.7783,15:10:14.778,26,false,0.602061,-0.357178,0.582153,0.413574,1.006363,-0.039551,-0.076661,-28.119374,-55.962465,22.472758
1784585414.8095,15:10:14.809,27,false,0.602149,-0.358093,0.581543,0.413513,1.013199,-0.033204,-0.062501,-28.029035,-55.839325,22.304066
1784585414.8406,15:10:14.840,28,false,0.602189,-0.358154,0.581421,0.413574,1.007828,-0.043946,-0.075685,-28.157085,-55.937852,22.391505
1784585414.872,15:10:14.872,29,false,0.602069,-0.358032,0.58136,0.41394,1.019547,-0.056153,-0.081056,-28.122791,-55.832127,22.365523
1784585414.9033,15:10:14.903,30,false,0.602088,-0.357788,0.58136,0.414124,1.002457,-0.067384,-0.079591,-28.047065,-55.781835,22.372047
1784585414.9346,15:10:14.934,31,false,0.602345,-0.357483,0.581238,0.414185,0.994156,-0.063478,-0.076173,-28.053681,-55.691712,22.482596
1784585414.966,15:10:14.966,0,false,0.602744,-0.357788,0.580811,0.41394,1.013687,-0.060548,-0.071778,-28.059635,-55.760139,22.447505
1784585414.9971,15:10:14.997,1,false,0.602491,-0.358582,0.580627,0.413879,1.006363,-0.059083,-0.06836,-27.97527,-55.732,22.356107
1784585415.0283,15:10:15.028,2,false,0.602104,-0.359497,0.580505,0.413818,0.99855,-0.052247,-0.062989,-28.033927,-55.766491,22.258896
1784585415.0594,15:10:15.059,3,false,0.602271,-0.360046,0.580383,0.413269,1.006363,-0.044923,-0.058106,-28.05681,-55.707809,22.231221
1784585415.0905,15:10:15.090,4,false,0.602351,-0.360474,0.580078,0.413208,1.011734,-0.035157,-0.076661,-28.077405,-55.684903,22.31099
1784585415.1217,15:10:15.121,5,false,0.602361,-0.360962,0.579895,0.413025,1.011246,-0.04004,-0.058595,-28.080987,-55.724104,22.188383
1784585415.1528,15:10:15.152,6,false,0.602324,-0.361023,0.579895,0.413025,1.015152,-0.032715,-0.067872,-27.949626,-55.594891,22.197667
1784585415.1839,15:10:15.183,7,false,0.601807,-0.361145,0.580139,0.41333,1.005386,-0.033692,-0.068849,-27.965986,-55.523462,22.086392
1784585415.2151,15:10:15.215,8,false,0.601705,-0.361328,0.580261,0.413147,1.003922,-0.047852,-0.063478,-28.040525,-55.59376,22.24046
1784585415.2464,15:10:15.246,9,false,0.601305,-0.361755,0.580322,0.413269,1.003922,-0.041016,-0.061524,-28.047794,-55.642075,22.229582
1784585415.2778,15:10:15.277,10,false,0.601005,-0.361877,0.580383,0.413513,1.00441,-0.028321,-0.065431,-27.964614,-55.550973,22.159977
1784585415.3091,15:10:15.309,11,false,0.600768,-0.362061,0.580383,0.413696,1.000504,-0.046387,-0.072755,-28.099106,-55.483936,22.187056
1784585415.3404,15:10:15.340,12,false,0.600349,-0.362366,0.580322,0.414124,1.019547,-0.038575,-0.067872,-28.160333,-55.483417,22.046934
1784585415.3718,15:10:15.371,13,false,0.599512,-0.362244,0.580566,0.4151,1.022965,-0.038087,-0.079103,-28.230391,-55.423135,22.160086
1784585415.4031,15:10:15.403,14,false,0.598629,-0.361084,0.581543,0.416016,1.002945,-0.049805,-0.062989,-28.158858,-55.503466,22.202108
1784585415.4343,15:10:15.434,15,false,0.596822,-0.359131,0.583557,0.41748,0.996109,-0.048341,-0.064942,-28.229064,-55.486041,22.150204
1784585415.4654,15:10:15.465,16,false,0.5955,-0.357361,0.585205,0.418579,1.000992,-0.068849,-0.041505,-28.127757,-55.530174,22.133398
1784585415.4965,15:10:15.496,17,false,0.594081,-0.354126,0.587646,0.419922,0.990738,-0.082521,-0.064942,-28.201072,-55.510078,22.163135
1784585415.5277,15:10:15.527,18,false,0.593883,-0.35199,0.588867,0.420288,0.995621,-0.082521,-0.044923,-28.267057,-55.44713,22.339436
1784585415.5588,15:10:15.558,19,false,0.594018,-0.350342,0.589539,0.420532,1.00441,-0.089845,-0.065431,-28.176904,-55.584876,22.348568
1784585415.5899,15:10:15.589,20,false,0.594476,-0.348755,0.589844,0.420776,1.014664,-0.079103,-0.062013,-28.30512,-55.723802,22.371742
1784585415.6213,15:10:15.621,21,false,0.594541,-0.348511,0.589661,0.421143,1.000015,-0.083986,-0.070802,-28.345746,-55.998374,22.258013
1784585415.6526,15:10:15.652,22,false,0.59451,-0.348328,0.589539,0.421509,1.00734,-0.080079,-0.075196,-28.247724,-56.080997,22.170611
1784585415.684,15:10:15.684,23,false,0.594596,-0.3479,0.589661,0.42157,1.008316,-0.083986,-0.067384,-28.204366,-56.185264,22.196626
1784585415.7153,15:10:15.715,24,false,0.594517,-0.347473,0.589905,0.421692,1.001968,-0.083009,-0.057618,-27.941037,-56.279105,22.22004
1784585415.7466,15:10:15.746,25,false,0.594475,-0.347412,0.590027,0.421631,0.995132,-0.069337,-0.061036,-27.943301,-56.423378,22.226158
1784585415.7778,15:10:15.777,26,false,0.594414,-0.347412,0.590088,0.421631,1.009293,-0.082033,-0.058106,-27.975247,-56.448546,22.231665
1784585415.8089,15:10:15.808,27,false,0.594371,-0.347412,0.590088,0.421692,1.006851,-0.07715,-0.057618,-27.85446,-56.471197,22.236621
1784585415.84,15:10:15.840,28,false,0.594335,-0.347473,0.590088,0.421692,1.022965,-0.075685,-0.058595,-27.850429,-56.506537,22.226127
1784585415.8712,15:10:15.871,29,false,0.593605,-0.347595,0.590271,0.422363,1.00148,-0.092775,-0.058595,-27.742123,-56.478528,22.336314
1784585415.9023,15:10:15.902,30,false,0.593016,-0.347473,0.590454,0.423035,0.994644,-0.119142,-0.072755,-27.674556,-56.513135,22.39062
1784585415.9335,15:10:15.933,31,false,0.592809,-0.346802,0.590881,0.423279,1.005386,-0.101564,-0.066407,-27.658608,-56.559235,22.484357
1784585415.9646,15:10:15.964,0,false,0.592317,-0.346497,0.591248,0.423706,1.005386,-0.09424,-0.071778,-27.689115,-56.630633,22.493952
1784585415.9959,15:10:15.995,1,false,0.592196,-0.346436,0.591492,0.423584,0.993668,-0.101076,-0.06836,-27.701618,-56.724798,22.562402
1784585416.0273,15:10:16.027,2,false,0.592121,-0.346863,0.591492,0.42334,0.991714,-0.099611,-0.055177,-27.78764,-56.764686,22.653915
1784585416.0586,15:10:16.058,3,false,0.592162,-0.347046,0.591431,0.423218,1.002945,-0.079591,-0.059083,-27.760383,-56.785631,22.4372
1784585416.0899,15:10:16.089,4,false,0.592217,-0.347412,0.591248,0.423096,0.999039,-0.083497,-0.061524,-27.840528,-56.894205,22.406648
1784585416.1213,15:10:16.121,5,false,0.592236,-0.347351,0.591309,0.423035,0.990738,-0.093263,-0.067384,-27.807982,-56.932105,22.424013
1784585416.1526,15:10:16.152,6,false,0.592442,-0.346985,0.591492,0.422791,1.001968,-0.097658,-0.062013,-27.85346,-56.756862,22.409734
1784585416.1838,15:10:16.183,7,false,0.592503,-0.346985,0.591431,0.422791,1.006851,-0.092287,-0.061524,-27.819621,-56.629051,22.471653
1784585416.2149,15:10:16.214,8,false,0.592599,-0.346924,0.59137,0.422791,1.00734,-0.090822,-0.064454,-27.893843,-56.528975,22.437656
1784585416.246,15:10:16.246,9,false,0.592768,-0.34668,0.591431,0.422668,1.002457,-0.092287,-0.066896,-27.99055,-56.513676,22.436966
1784585416.2772,15:10:16.277,10,false,0.59295,-0.346741,0.591431,0.422363,1.008804,-0.091798,-0.063966,-28.002817,-56.499907,22.615792
1784585416.3083,15:10:16.308,11,false,0.593238,-0.347229,0.591248,0.421814,1.007828,-0.081056,-0.066896,-27.98395,-56.487514,22.567381
