Timestamp,Local time,Counter,Interpolated,Accelerometer X,Accelerometer Y,Accelerometer Z,Magnetometer X,Magnetometer Y,Magnetometer Z,Quaternion 0,Quaternion 1,Quaternion 2,Quaternion 3
1784155967.7443,15:52:47.744,31,false,0.412382,-0.501587,0.47876,0.590881,0.985489,-0.173342,-0.041016,-26.786492,-59.277573,24.369059
1784155967.7755,15:52:47.775,0,false,0.412385,-0.501526,0.478821,0.590881,0.979141,-0.165042,-0.028809,-26.844396,-59.032276,24.324767
1784155967.8066,15:52:47.806,1,false,0.412405,-0.501465,0.478943,0.59082,0.985489,-0.153323,-0.034668,-26.732017,-59.155446,24.329767
1784155967.8378,15:52:47.837,2,false,0.412007,-0.501648,0.478943,0.590942,0.992325,-0.174319,-0.020996,-26.64583,-59.251346,24.289405
1784155967.8689,15:52:47.868,3,false,0.411778,-0.501648,0.479065,0.591003,0.986954,-0.165042,-0.033204,-26.64303,-59.262886,24.253079
1784155967.9002,15:52:47.900,4,false,0.411801,-0.501526,0.479248,0.590942,0.980117,-0.166506,-0.024903,-26.625557,-59.18355,24.190478
1784155967.9316,15:52:47.931,5,false,0.411552,-0.501587,0.479248,0.591064,0.979629,-0.170901,-0.030762,-26.624785,-59.231777,24.193953
1784155967.9629,15:52:47.962,6,false,0.410789,-0.50177,0.478882,0.591736,0.990372,-0.171878,-0.032227,-26.594183,-59.275182,23.987726
1784155967.9943,15:52:47.994,7,false,0.410359,-0.501587,0.479065,0.592041,0.985489,-0.178225,-0.035645,-26.731133,-59.40397,23.95166
1784155968.0256,15:52:48.025,8,false,0.410166,-0.501587,0.479004,0.592224,0.985,-0.170901,-0.04004,-26.689896,-59.430156,24.008924
1784155968.057,15:52:48.057,9,false,0.4102,-0.501587,0.479126,0.592102,0.992813,-0.169924,-0.031739,-26.742505,-59.483631,23.970739
1784155968.0883,15:52:48.088,10,false,0.410197,-0.501648,0.479065,0.592102,0.983536,-0.163577,-0.04004,-26.700131,-59.546712,23.921418
1784155968.1194,15:52:48.119,11,false,0.410298,-0.501709,0.479065,0.59198,0.981094,-0.147463,-0.039063,-26.661994,-59.558623,24.026568
1784155968.1506,15:52:48.150,12,false,0.410315,-0.501709,0.479126,0.591919,0.980606,-0.146487,-0.039551,-26.567855,-59.599251,24.061387
1784155968.1817,15:52:48.181,13,false,0.410355,-0.501587,0.47937,0.591797,0.985489,-0.154299,-0.030762,-26.408361,-59.635817,24.137586
1784155968.2129,15:52:48.212,14,false,0.410189,-0.501404,0.479553,0.591919,0.973281,-0.179202,-0.043458,-26.444263,-59.80331,24.131396
1784155968.244,15:52:48.244,15,false,0.409833,-0.501465,0.479492,0.592163,0.985489,-0.174807,-0.033204,-26.46162,-59.759654,24.110871
1784155968.2753,15:52:48.275,16,false,0.409778,-0.50116,0.479858,0.592163,0.974746,-0.180667,-0.044434,-26.447334,-59.720363,24.152214
1784155968.3067,15:52:48.306,17,false,0.409734,-0.501038,0.479797,0.592346,0.981582,-0.161135,-0.032715,-26.434477,-59.580326,24.084746
1784155968.338,15:52:48.338,18,false,0.409439,-0.501282,0.479492,0.59259,0.97377,-0.186526,-0.038087,-26.422905,-59.514107,24.024024
1784155968.3694,15:52:48.369,19,false,0.409266,-0.501221,0.479553,0.592712,0.981582,-0.168948,-0.033204,-26.427445,-59.514325,24.02919
1784155968.4007,15:52:48.400,20,false,0.409008,-0.501404,0.479431,0.592834,0.986465,-0.16553,-0.034668,-26.521253,-59.499567,23.944117
1784155968.432,15:52:48.432,21,false,0.408827,-0.501465,0.47937,0.592957,0.968887,-0.166506,-0.043458,-26.441189,-59.576009,23.987181
1784155968.4634,15:52:48.463,22,false,0.408719,-0.501526,0.479248,0.593079,0.978164,-0.172366,-0.035157,-26.294361,-59.570037,23.891355
1784155968.4945,15:52:48.494,23,false,0.408432,-0.501587,0.479126,0.593323,0.982071,-0.163577,-0.04004,-26.521109,-59.654385,23.820065
1784155968.5257,15:52:48.525,24,false,0.408238,-0.501587,0.479065,0.593506,0.992325,-0.159182,-0.041505,-26.500874,-59.655529,23.93535
1784155968.5568,15:52:48.556,25,false,0.40754,-0.501343,0.479309,0.593994,0.984024,-0.178225,-0.029786,-26.497617,-59.566836,23.949383
1784155968.5879,15:52:48.587,26,false,0.40744,-0.500916,0.479614,0.594177,0.976699,-0.167483,-0.03125,-26.5545,-59.621597,24.126506
1784155968.6191,15:52:48.619,27,false,0.406686,-0.501038,0.47937,0.594788,0.972793,-0.169436,-0.046876,-26.501019,-59.581158,23.971885
1784155968.6504,15:52:48.650,28,false,0.405962,-0.500916,0.479126,0.595581,0.980117,-0.172854,-0.033692,-26.422978,-59.499902,23.937403
1784155968.6818,15:52:48.681,29,false,0.405581,-0.500671,0.479248,0.595947,0.983536,-0.176761,-0.041016,-26.307879,-59.426772,23.951232
1784155968.7131,15:52:48.713,30,false,0.405003,-0.500427,0.479309,0.596497,0.98793,-0.182132,-0.035645,-26.428598,-59.510493,23.859
1784155968.7444,15:52:48.744,31,false,0.404524,-0.500305,0.479309,0.596924,0.974258,-0.180179,-0.043458,-26.507337,-59.481165,23.835807
1784155968.7756,15:52:48.775,0,false,0.40444,-0.500183,0.479431,0.596985,0.98793,-0.184573,-0.038087,-26.41371,-59.694031,23.740164
1784155968.8069,15:52:48.806,1,false,0.404065,-0.500122,0.479431,0.59729,0.985,-0.187015,-0.041993,-26.404215,-59.840749,23.78867
1784155968.8381,15:52:48.838,2,false,0.404062,-0.499817,0.479675,0.597351,0.97084,-0.184085,-0.035645,-26.39567,-59.823257,23.907094
1784155968.8692,15:52:48.869,3,false,0.403683,-0.499817,0.479614,0.597656,0.984024,-0.19971,-0.038575,-26.417887,-59.852375,23.804323
1784155968.9003,15:52:48.900,4,false,0.403605,-0.499573,0.479858,0.597717,0.968399,-0.196292,-0.023926,-26.348159,-59.923444,23.831459
1784155968.9315,15:52:48.931,5,false,0.403421,-0.499634,0.479797,0.597839,0.97377,-0.183597,-0.039551,-26.375127,-59.822913,23.766158
1784155968.9626,15:52:48.962,6,false,0.402972,-0.499573,0.479858,0.598145,0.982071,-0.198734,-0.048829,-26.489121,-59.837112,23.827019
1784155968.994,15:52:48.994,7,false,0.402942,-0.499451,0.479858,0.598267,0.995254,-0.188968,-0.047852,-26.367408,-59.954568,23.672439
1784155969.0253,15:52:49.025,8,false,0.402703,-0.499512,0.479614,0.598572,0.985977,-0.163577,-0.045899,-26.227959,-60.060279,23.712764
1784155969.0566,15:52:49.056,9,false,0.402488,-0.499817,0.479553,0.598511,0.967422,-0.188479,-0.046387,-26.16227,-60.020833,23.793917
1784155969.088,15:52:49.088,10,false,0.401988,-0.5,0.479553,0.598694,0.971817,-0.18262,-0.044923,-26.148011,-60.119917,23.852002
1784155969.1193,15:52:49.119,11,false,0.4019,-0.499939,0.479614,0.598755,0.97377,-0.191409,-0.024903,-26.120225,-60.149278,23.784647
1784155969.1507,15:52:49.150,12,false,0.401682,-0.499939,0.479492,0.598999,0.97377,-0.17969,-0.056153,-26.035401,-60.085979,23.709074
1784155969.1818,15:52:49.181,13,false,0.401479,-0.5,0.47937,0.599182,0.980606,-0.177737,-0.05713,-26.03383,-59.999102,23.745735
1784155969.2131,15:52:49.213,14,false,0.401318,-0.499939,0.479492,0.599243,0.977676,-0.188479,-0.044434,-26.017461,-59.935867,23.689007
1784155969.2443,15:52:49.244,15,false,0.400764,-0.500061,0.47937,0.599609,0.981582,-0.183108,-0.033692,-25.898053,-59.953725,23.667859
1784155969.2754,15:52:49.275,16,false,0.4002,-0.5,0.47937,0.600037,0.974746,-0.170413,-0.041016,-26.014893,-59.999704,23.648827
1784155969.3066,15:52:49.306,17,false,0.399745,-0.499939,0.479126,0.600586,0.982071,-0.19678,-0.039063,-26.075187,-60.190624,23.631697
1784155969.3377,15:52:49.337,18,false,0.39984,-0.499512,0.479492,0.600586,0.981582,-0.204593,-0.050782,-26.249083,-60.138144,23.765819
1784155969.3689,15:52:49.368,19,false,0.399843,-0.499451,0.479553,0.600586,0.982071,-0.19971,-0.040528,-26.271005,-60.00119,23.751944
1784155969.4002,15:52:49.400,20,false,0.399684,-0.499329,0.479736,0.600647,0.963027,-0.188968,-0.038087,-26.201011,-59.937746,23.769364
1784155969.4315,15:52:49.431,21,false,0.399546,-0.499146,0.479736,0.600891,0.974746,-0.192874,-0.023926,-26.287555,-60.060092,23.81495
1784155969.4629,15:52:49.462,22,false,0.399552,-0.498596,0.479614,0.60144,0.977188,-0.188479,-0.038087,-26.245814,-59.990758,23.721393
1784155969.4942,15:52:49.494,23,false,0.39934,-0.498352,0.479431,0.601929,0.983047,-0.199222,-0.03418,-26.297971,-59.988173,23.756822
1784155969.5256,15:52:49.525,24,false,0.399233,-0.498291,0.479431,0.602051,0.985489,-0.194339,-0.042481,-26.41968,-60.015754,23.818616
1784155969.5569,15:52:49.556,25,false,0.398789,-0.49823,0.478943,0.602783,0.979629,-0.19678,-0.046387,-26.439496,-60.100392,23.784507
1784155969.5881,15:52:49.588,26,false,0.3983,-0.498413,0.478699,0.603149,0.986954,-0.20557,-0.048341,-26.442376,-60.116751,23.708948
1784155969.6193,15:52:49.619,27,false,0.398144,-0.498535,0.478394,0.603394,0.977188,-0.193851,-0.041993,-26.654322,-60.11652,23.685807
1784155969.6504,15:52:49.650,28,false,0.398105,-0.498535,0.478271,0.603516,0.981582,-0.188968,-0.03711,-26.695536,-60.191081,23.664979
1784155969.6816,15:52:49.681,29,false,0.397974,-0.498535,0.478149,0.603699,0.979141,-0.18262,-0.04004,-26.672812,-60.168464,23.661188
1784155969.7127,15:52:49.712,30,false,0.398079,-0.498291,0.478394,0.603638,0.985,-0.196292,-0.045899,-26.72713,-60.207923,23.732544
1784155969.744,15:52:49.744,31,false,0.397993,-0.498169,0.478516,0.603699,0.975235,-0.195804,-0.042481,-26.581616,-60.213529,23.721998
1784155969.7754,15:52:49.775,0,false,0.397999,-0.498047,0.478638,0.603699,0.975235,-0.199222,-0.048341,-26.480561,-60.308297,23.697551
1784155969.8067,15:52:49.806,1,false,0.398011,-0.497803,0.478882,0.603699,0.974746,-0.195804,-0.044923,-26.479335,-60.273958,23.765272
1784155969.8381,15:52:49.838,2,false,0.398128,-0.49762,0.478821,0.603821,0.96791,-0.183108,-0.048829,-26.508139,-60.093514,23.796313
1784155969.8694,15:52:49.869,3,false,0.398169,-0.497498,0.47876,0.603943,0.982071,-0.190433,-0.049317,-26.459294,-60.140468,23.824251
1784155969.9007,15:52:49.900,4,false,0.398174,-0.497375,0.478882,0.603943,0.976211,-0.192386,-0.051759,-26.564871,-60.182727,23.849394
1784155969.9321,15:52:49.932,5,false,0.39797,-0.497375,0.478821,0.604126,0.985977,-0.191409,-0.047364,-26.555214,-60.22076,23.767346
1784155969.9634,15:52:49.963,6,false,0.397613,-0.497498,0.47876,0.604309,0.972305,-0.199222,-0.033204,-26.426892,-60.25499,23.753319
1784155969.9946,15:52:49.994,7,false,0.397781,-0.497375,0.478516,0.604492,0.985,-0.203616,-0.049317,-26.46094,-60.330658,23.680878
1784155970.0257,15:52:50.025,8,false,0.39779,-0.497498,0.478149,0.604675,0.979141,-0.187015,-0.037598,-26.461676,-60.323991,23.675497
1784155970.0568,15:52:50.056,9,false,0.398087,-0.497437,0.477966,0.604675,0.985,-0.192386,-0.050294,-26.297846,-60.303036,23.551024
1784155970.088,15:52:50.088,10,false,0.397736,-0.497986,0.47699,0.605225,0.977676,-0.186526,-0.05713,-26.314892,-60.29913,23.498813
1784155970.1191,15:52:50.119,11,false,0.397541,-0.498047,0.476624,0.605591,0.964492,-0.204105,-0.038575,-26.330232,-60.220846,23.511639
1784155970.1505,15:52:50.150,12,false,0.397591,-0.497742,0.476746,0.605713,0.974258,-0.19971,-0.055177,-26.344039,-60.22516,23.493274
1784155970.1818,15:52:50.181,13,false,0.397575,-0.497681,0.476746,0.605774,0.981094,-0.193851,-0.06006,-26.221881,-60.169227,23.4917
1784155970.2131,15:52:50.213,14,false,0.397312,-0.497742,0.476746,0.605896,0.986954,-0.194339,-0.041505,-26.246522,-60.253471,23.370652
1784155970.2445,15:52:50.244,15,false,0.397029,-0.497803,0.476685,0.606079,0.978164,-0.185061,-0.053223,-26.2687,-60.404061,23.471063
1784155970.2757,15:52:50.275,16,false,0.397135,-0.497559,0.476929,0.606018,0.976211,-0.203128,-0.06006,-26.393337,-60.285376,23.561433
1784155970.3069,15:52:50.306,17,false,0.397119,-0.497498,0.476929,0.606079,0.977676,-0.194339,-0.043946,-26.430741,-60.283236,23.46332
1784155970.3382,15:52:50.338,18,false,0.397096,-0.497559,0.476807,0.60614,0.976211,-0.185061,-0.042969,-26.419543,-60.266357,23.404926
1784155970.3693,15:52:50.369,19,false,0.397399,-0.497742,0.47644,0.606079,0.972305,-0.189456,-0.049805,-26.334695,-60.251166,23.382278
1784155970.4005,15:52:50.400,20,false,0.397415,-0.498047,0.475952,0.606201,0.975235,-0.190921,-0.047364,-26.303194,-60.222539,23.302081
1784155970.4316,15:52:50.431,21,false,0.397368,-0.498169,0.475708,0.606323,0.980117,-0.197757,-0.048341,-26.349613,-60.077145,23.199995
1784155970.4628,15:52:50.462,22,false,0.397145,-0.498108,0.475647,0.606567,0.975723,-0.193362,-0.047364,-26.361481,-60.170598,23.182887
1784155970.4939,15:52:50.493,23,false,0.397332,-0.498108,0.475647,0.606445,0.981094,-0.199222,-0.051759,-26.357209,-60.19489,23.182444
1784155970.5252,15:52:50.525,24,false,0.397601,-0.498291,0.475464,0.606262,0.972793,-0.187991,-0.049805,-26.368318,-60.276568,23.092322
1784155970.5566,15:52:50.556,25,false,0.39794,-0.498169,0.475464,0.60614,0.980606,-0.188479,-0.059083,-26.363362,-60.290264,23.100935
1784155970.5879,15:52:50.587,26,false,0.398162,-0.498108,0.475342,0.60614,0.966445,-0.185061,-0.058595,-26.164502,-60.302589,23.213364
1784155970.6193,15:52:50.619,27,false,0.398914,-0.497803,0.475342,0.605896,0.970352,-0.193362,-0.05127,-26.045344,-60.268821,23.12015
1784155970.6506,15:52:50.650,28,false,0.399195,-0.497986,0.474915,0.605896,0.97377,-0.17969,-0.049805,-26.162408,-60.16366,23.036257
1784155970.6817,15:52:50.681,29,false,0.399481,-0.498047,0.474609,0.605896,0.98793,-0.184085,-0.059571,-26.207951,-60.083969,23.125246
1784155970.7131,15:52:50.713,30,false,0.39945,-0.49823,0.474365,0.605957,0.978164,-0.193362,-0.063478,-26.263894,-60.206647,23.115613
1784155970.7442,15:52:50.744,31,false,0.399138,-0.498474,0.47406,0.606201,0.992325,-0.190433,-0.048341,-26.164704,-60.182473,22.957405
1784155970.7754,15:52:50.775,0,false,0.399025,-0.498474,0.473999,0.606323,0.971328,-0.185061,-0.055665,-26.150202,-60.190624,22.889787
1784155970.8065,15:52:50.806,1,false,0.399025,-0.498474,0.473999,0.606323,0.975723,-0.188968,-0.045899,-26.196965,-60.287682,22.888746
1784155970.8377,15:52:50.837,2,false,0.399152,-0.498291,0.473694,0.606628,0.980606,-0.180179,-0.07129,-26.209145,-60.345128,23.022394
1784155970.8688,15:52:50.868,3,false,0.399609,-0.497925,0.473694,0.606628,0.985489,-0.176761,-0.056641,-26.190199,-60.262244,22.978184
1784155970.9001,15:52:50.900,4,false,0.399583,-0.497864,0.473389,0.606934,0.984512,-0.176761,-0.066407,-26.173147,-60.292325,22.983257
1784155970.9315,15:52:50.931,5,false,0.399315,-0.497864,0.473145,0.6073,0.969375,-0.191409,-0.067384,-26.23257,-60.259583,22.838285
1784155970.9628,15:52:50.962,6,false,0.399392,-0.497803,0.473145,0.6073,0.988418,-0.183108,-0.064454,-26.16642,-60.245069,22.90221
1784155970.9942,15:52:50.994,7,false,0.399415,-0.497925,0.472839,0.607422,0.971817,-0.194339,-0.067384,-26.211562,-60.187145,22.825157
1784155971.0255,15:52:51.025,8,false,0.399495,-0.497803,0.4729,0.607422,0.981094,-0.184573,-0.05713,-26.102651,-60.135013,22.860487
1784155971.0568,15:52:51.056,9,false,0.399437,-0.497742,0.472778,0.607605,0.973281,-0.194827,-0.062013,-25.989677,-59.923602,22.87733
1784155971.0882,15:52:51.088,10,false,0.399227,-0.497803,0.472656,0.607788,0.980117,-0.186526,-0.069825,-26.03754,-59.95764,22.952304
1784155971.1193,15:52:51.119,11,false,0.399113,-0.497803,0.472595,0.60791,0.984512,-0.191409,-0.066407,-26.095569,-59.97332,22.870242
1784155971.1505,15:52:51.150,12,false,0.399003,-0.497742,0.472595,0.608032,0.970352,-0.194339,-0.06006,-26.087981,-59.89771,22.886109
1784155971.1816,15:52:51.181,13,false,0.398918,-0.49762,0.472717,0.608093,0.978653,-0.199222,-0.069825,-26.15592,-59.904429,22.855528
1784155971.2127,15:52:51.212,14,false,0.398631,-0.497742,0.472595,0.608276,0.980606,-0.18555,-0.05127,-26.052574,-59.850661,22.783144
1784155971.2439,15:52:51.243,15,false,0.39858,-0.497742,0.472717,0.608215,0.971328,-0.182132,-0.059083,-25.974516,-59.966762,22.912398
1784155971.2752,15:52:51.275,16,false,0.398486,-0.497742,0.472717,0.608276,0.974258,-0.190921,-0.05713,-26.083709,-60.011438,22.909096
1784155971.3066,15:52:51.306,17,false,0.39841,-0.497803,0.472717,0.608276,0.984512,-0.176761,-0.049805,-26.122168,-59.961923,22.77154
1784155971.3379,15:52:51.337,18,false,0.398288,-0.497925,0.472534,0.608398,0.972305,-0.17969,-0.059083,-26.082012,-59.962221,22.6926
1784155971.3692,15:52:51.369,19,false,0.39822,-0.497864,0.472656,0.608398,0.979141,-0.176761,-0.05713,-26.00101,-59.96249,22.621555
1784155971.4006,15:52:51.400,20,false,0.397848,-0.498169,0.472412,0.608582,0.981094,-0.178714,-0.05713,-25.987924,-59.858054,22.602476
1784155971.4319,15:52:51.431,21,false,0.397598,-0.498352,0.472351,0.608643,0.974258,-0.194339,-0.055665,-26.021008,-59.913601,22.630166
1784155971.4633,15:52:51.463,22,false,0.397602,-0.498291,0.472412,0.608643,0.985,-0.175784,-0.06006,-26.005921,-60.008454,22.610226
1784155971.4946,15:52:51.494,23,false,0.397573,-0.498413,0.472229,0.608704,0.989883,-0.17969,-0.056641,-26.126928,-59.884468,22.577325
1784155971.5257,15:52:51.525,24,false,0.397475,-0.498474,0.472168,0.608765,0.971328,-0.198734,-0.057618,-26.10125,-59.862604,22.532761
1784155971.5569,15:52:51.556,25,false,0.397462,-0.498352,0.472229,0.608826,0.979629,-0.179202,-0.063478,-26.137955,-59.872834,22.582377
1784155971.588,15:52:51.588,26,false,0.39753,-0.498108,0.472351,0.608887,0.978653,-0.183597,-0.049805,-26.09622,-59.911949,22.582169
1784155971.6192,15:52:51.619,27,false,0.397616,-0.498047,0.472107,0.60907,0.997696,-0.186526,-0.070802,-26.058659,-59.842475,22.552075
1784155971.6503,15:52:51.650,28,false,0.3979,-0.497803,0.472046,0.609131,0.974746,-0.188968,-0.065431,-26.159438,-59.974349,22.64462
1784155971.6816,15:52:51.681,29,false,0.397977,-0.497559,0.471924,0.609375,0.978653,-0.193362,-0.067872,-26.190324,-60.03322,22.638188
1784155971.713,15:52:51.713,30,false,0.398035,-0.497253,0.471802,0.60968,0.978164,-0.185061,-0.060548,-26.068584,-60.026388,22.677261
1784155971.7443,15:52:51.744,31,false,0.39783,-0.497009,0.47168,0.610107,0.964004,-0.185061,-0.065431,-26.138463,-60.154824,22.667565
1784155971.7755,15:52:51.775,0,false,0.397339,-0.496826,0.471497,0.610718,0.982071,-0.194827,-0.0542,-26.126585,-60.135832,22.599023
1784155971.8066,15:52:51.806,1,false,0.397228,-0.496765,0.471497,0.61084,0.978164,-0.195315,-0.06836,-26.145803,-60.058924,22.582197
1784155971.8377,15:52:51.837,2,false,0.397052,-0.496582,0.47168,0.610962,0.984512,-0.205081,-0.066896,-26.043468,-59.914938,22.611915
1784155971.8689,15:52:51.868,3,false,0.397149,-0.496521,0.471741,0.610901,0.981094,-0.195315,-0.046387,-25.96632,-60.09938,22.653615
1784155971.9,15:52:51.900,4,false,0.397256,-0.496521,0.472046,0.610596,0.97377,-0.184573,-0.055665,-25.926795,-60.205564,22.556561
1784155971.9312,15:52:51.931,5,false,0.397511,-0.49646,0.47229,0.610291,0.97377,-0.187015,-0.0542,-25.861315,-60.211405,22.663612
1784155971.9623,15:52:51.962,6,false,0.397679,-0.496277,0.472656,0.610046,0.972793,-0.190433,-0.058595,-25.787429,-60.231617,22.685188
1784155971.9934,15:52:51.993,7,false,0.397734,-0.496216,0.472595,0.610107,0.972305,-0.174807,-0.054688,-25.855516,-60.204945,22.674699
1784155972.0246,15:52:52.024,8,false,0.397699,-0.496094,0.472595,0.610229,0.983536,-0.198734,-0.044434,-25.90184,-60.121126,22.725075
1784155972.0559,15:52:52.055,9,false,0.397919,-0.49585,0.472351,0.610474,0.981582,-0.187015,-0.067872,-25.838855,-60.105504,22.605921
1784155972.0873,15:52:52.087,10,false,0.39805,-0.495728,0.47229,0.610535,0.989883,-0.194827,-0.061036,-25.841984,-60.106398,22.633266
1784155972.1186,15:52:52.118,11,false,0.398299,-0.495544,0.472351,0.610474,0.977676,-0.187503,-0.073732,-25.904616,-60.196925,22.523293
1784155972.15,15:52:52.150,12,false,0.397979,-0.495483,0.47229,0.610779,0.972793,-0.195315,-0.062501,-25.796492,-60.188677,22.379455
1784155972.1811,15:52:52.181,13,false,0.397813,-0.495483,0.472351,0.61084,0.967422,-0.193851,-0.061036,-25.788904,-60.196207,22.578986
1784155972.2124,15:52:52.212,14,false,0.398158,-0.494934,0.473267,0.610352,0.978164,-0.186526,-0.061524,-25.722259,-60.217939,22.773517
1784155972.2436,15:52:52.243,15,false,0.398061,-0.494995,0.473206,0.610413,0.968399,-0.186038,-0.051759,-25.662278,-60.13282,22.664473
1784155972.2747,15:52:52.274,16,false,0.397712,-0.4953,0.473022,0.610535,0.988907,-0.187015,-0.06836,-25.772788,-60.175844,22.551378
1784155972.3059,15:52:52.305,17,false,0.397514,-0.495483,0.472839,0.610657,0.977676,-0.18262,-0.063478,-25.782524,-60.124842,22.539317
1784155972.337,15:52:52.337,18,false,0.397334,-0.495728,0.472656,0.610718,0.991836,-0.180667,-0.065919,-25.851101,-60.108848,22.618184
1784155972.3681,15:52:52.368,19,false,0.397369,-0.49585,0.472656,0.610596,0.975723,-0.186526,-0.064942,-25.927775,-60.034638,22.704119
1784155972.3993,15:52:52.399,20,false,0.397206,-0.495789,0.472778,0.610657,0.980117,-0.20557,-0.059083,-25.847243,-59.863173,22.721645
1784155972.4306,15:52:52.430,21,false,0.397036,-0.49585,0.472778,0.610718,0.971817,-0.187503,-0.050294,-25.849533,-59.8883,22.617787
1784155972.462,15:52:52.462,22,false,0.396577,-0.496033,0.472656,0.610962,0.967422,-0.180179,-0.064454,-25.971225,-59.910914,22.569177
1784155972.4933,15:52:52.493,23,false,0.396305,-0.496216,0.472534,0.611084,0.979141,-0.187503,-0.061524,-25.976071,-59.976128,22.390843
1784155972.5246,15:52:52.524,24,false,0.396109,-0.496338,0.472412,0.611206,0.968887,-0.188968,-0.058106,-25.965478,-60.064729,22.394835
1784155972.556,15:52:52.556,25,false,0.395994,-0.496338,0.472351,0.611328,0.977676,-0.198245,-0.067872,-25.89613,-60.114562,22.353566
1784155972.5873,15:52:52.587,26,false,0.395809,-0.496277,0.472412,0.61145,0.976211,-0.20557,-0.063478,-25.833716,-60.129504,22.346332
1784155972.6185,15:52:52.618,27,false,0.395718,-0.496216,0.472473,0.611511,0.982071,-0.195315,-0.069337,-25.837359,-60.083136,22.459452
1784155972.6496,15:52:52.649,28,false,0.395747,-0.496094,0.472656,0.61145,0.979629,-0.186038,-0.063478,-25.840638,-60.161036,22.501445
1784155972.6809,15:52:52.680,29,false,0.395318,-0.49646,0.472473,0.611572,0.977188,-0.192874,-0.063966,-25.753865,-60.141423,22.449515
1784155972.7121,15:52:52.712,30,false,0.395073,-0.496521,0.472534,0.611633,0.966934,-0.189944,-0.044923,-25.735586,-60.288263,22.342963
1784155972.7432,15:52:52.743,31,false,0.395106,-0.496338,0.472778,0.611572,0.963027,-0.196292,-0.062501,-25.674273,-60.270881,22.501281
1784155972.7744,15:52:52.774,0,false,0.395211,-0.496155,0.472961,0.611511,0.976699,-0.195315,-0.058106,-25.768629,-60.434683,22.643768
1784155972.8057,15:52:52.805,1,false,0.395362,-0.495911,0.473328,0.611328,0.976699,-0.201175,-0.058595,-25.704012,-60.477429,22.772005
1784155972.837,15:52:52.837,2,false,0.395906,-0.495544,0.473572,0.611084,0.981094,-0.195804,-0.06006,-25.720625,-60.471038,22.782743
1784155972.8684,15:52:52.868,3,false,0.396077,-0.495483,0.473572,0.611023,0.982071,-0.178225,-0.06836,-25.705669,-60.435378,22.822314
1784155972.8997,15:52:52.899,4,false,0.395979,-0.495544,0.473511,0.611084,0.984024,-0.198734,-0.066407,-25.737071,-60.313562,22.798113
1784155972.9311,15:52:52.931,5,false,0.395839,-0.495605,0.473328,0.611267,0.980606,-0.192874,-0.050294,-25.765332,-60.233834,22.746424
1784155972.9624,15:52:52.962,6,false,0.395776,-0.495422,0.473572,0.611267,0.977188,-0.195315,-0.063966,-25.790767,-60.236849,22.909257
1784155972.9935,15:52:52.993,7,false,0.395798,-0.495422,0.473633,0.611206,0.985,-0.195315,-0.066896,-25.798705,-60.179747,22.786639
1784155973.0247,15:52:53.024,8,false,0.395602,-0.495544,0.473511,0.611328,0.977676,-0.194339,-0.057618,-25.865665,-60.218078,22.736097
1784155973.0558,15:52:53.055,9,false,0.395529,-0.495544,0.473572,0.611328,0.978164,-0.195804,-0.05713,-25.910974,-60.282484,22.750425
1784155973.087,15:52:53.087,10,false,0.395358,-0.495605,0.473572,0.611389,0.976211,-0.189944,-0.057618,-25.921845,-60.310541,22.733413
1784155973.1181,15:52:53.118,11,false,0.39517,-0.495605,0.473572,0.611511,0.966445,-0.200198,-0.06006,-25.767137,-60.3657,22.748009
1784155973.1494,15:52:53.149,12,false,0.395106,-0.495605,0.473389,0.611694,0.977676,-0.19678,-0.063478,-25.94193,-60.355528,22.731238
1784155973.1808,15:52:53.180,13,false,0.395112,-0.495483,0.473511,0.611694,0.984024,-0.18262,-0.066896,-25.830075,-60.585635,22.701191
1784155973.2121,15:52:53.212,14,false,0.395333,-0.4953,0.473755,0.611511,0.972793,-0.198734,-0.055665,-25.819128,-60.628239,22.689102
1784155973.2435,15:52:53.243,15,false,0.395162,-0.495361,0.473755,0.611572,0.977188,-0.170901,-0.052735,-25.82423,-60.576859,22.663268
1784155973.2748,15:52:53.274,16,false,0.395165,-0.4953,0.473816,0.611572,0.964004,-0.183597,-0.055665,-25.679283,-60.455848,22.684879
1784155973.3059,15:52:53.305,17,false,0.395067,-0.495361,0.473755,0.611633,0.972305,-0.181155,-0.066407,-25.847908,-60.376846,22.629559
1784155973.3371,15:52:53.337,18,false,0.39478,-0.495422,0.473694,0.611816,0.974746,-0.201663,-0.060548,-25.850131,-60.500144,22.60968
1784155973.3682,15:52:53.368,19,false,0.394787,-0.4953,0.473816,0.611816,0.976699,-0.177737,-0.052735,-25.822225,-60.416713,22.591788
1784155973.3994,15:52:53.399,20,false,0.39479,-0.495239,0.473877,0.611816,-0.01416,-0.191897,-0.050782,-25.79711,-60.311717,22.575685
1784155973.4305,15:52:53.430,21,false,0.394546,-0.4953,0.473938,0.611877,0.980606,-0.187015,-0.048829,-25.699736,-60.247128,22.635962
1784155973.4617,15:52:53.461,22,false,0.394353,-0.495361,0.473877,0.612,0.976211,-0.202152,-0.052247,-25.836408,-60.308628,22.480858
1784155973.4928,15:52:53.492,23,false,0.394003,-0.495605,0.473755,0.612122,0.982559,-0.18555,-0.049317,-25.839782,-60.319117,22.550617
1784155973.5239,15:52:53.523,24,false,0.394028,-0.495544,0.473877,0.612061,0.968887,-0.192874,-0.050782,-25.708234,-60.238835,22.628355
1784155973.5553,15:52:53.555,25,false,0.393857,-0.495605,0.473877,0.612122,0.981094,-0.206058,-0.057618,-25.873963,-60.226395,22.578688
1784155973.5866,15:52:53.586,26,false,0.393316,-0.49585,0.473755,0.612366,0.96791,-0.19678,-0.050782,-25.948351,-60.170339,22.533988
1784155973.618,15:52:53.618,27,false,0.393239,-0.495911,0.473755,0.612366,0.97377,-0.193362,-0.052247,-25.925576,-60.209611,22.538619
1784155973.6493,15:52:53.649,28,false,0.393099,-0.495789,0.473999,0.612366,0.977188,-0.208988,-0.054688,-25.979849,-60.215048,22.542787
1784155973.6804,15:52:53.680,29,false,0.393176,-0.495728,0.473999,0.612366,0.966934,-0.20557,-0.050782,-26.058601,-60.369479,22.621308
1784155973.7118,15:52:53.711,30,false,0.39281,-0.49585,0.473938,0.612549,0.970352,-0.201175,-0.058106,-26.099571,-60.388837,22.482622
1784155973.7431,15:52:53.743,31,false,0.392539,-0.495972,0.473877,0.612671,0.972793,-0.200687,-0.057618,-25.986906,-60.406259,22.49239
1784155973.7743,15:52:53.774,0,false,0.392466,-0.495972,0.473938,0.612671,0.979141,-0.183108,-0.055177,-26.035045,-60.362124,22.501181
1784155973.8054,15:52:53.805,1,false,0.392447,-0.495911,0.473938,0.612732,0.979629,-0.192874,-0.061524,-26.138186,-60.292494,22.494139
1784155973.8365,15:52:53.836,2,false,0.392278,-0.495911,0.473999,0.612793,0.978653,-0.201175,-0.064454,-26.231012,-60.229827,22.532663
1784155973.8677,15:52:53.867,3,false,0.392165,-0.49585,0.473999,0.612915,0.986465,-0.200198,-0.056153,-26.269695,-60.442597,22.731827
1784155973.8988,15:52:53.898,4,false,0.392289,-0.495728,0.474182,0.612793,0.992325,-0.198734,-0.055665,-26.22974,-60.29015,22.851259
1784155973.9302,15:52:53.930,5,false,0.39232,-0.495544,0.474426,0.612732,0.986465,-0.200198,-0.049805,-26.059196,-60.257626,22.898932
1784155973.9615,15:52:53.961,6,false,0.392049,-0.495667,0.474365,0.612854,0.974258,-0.198245,-0.05713,-26.040291,-60.243308,22.852115
1784155973.9928,15:52:53.992,7,false,0.391836,-0.495667,0.474304,0.613037,0.967422,-0.209964,-0.056641,-26.142907,-60.18556,22.80998
1784155974.0242,15:52:54.024,8,false,0.391484,-0.495911,0.474182,0.613159,0.989395,-0.192386,-0.059571,-26.1904,-60.133586,22.81692
1784155974.0555,15:52:54.055,9,false,0.391183,-0.496155,0.473938,0.613342,0.97377,-0.206546,-0.05713,-26.233144,-60.131672,22.778304
1784155974.0869,15:52:54.086,10,false,0.391091,-0.496094,0.473999,0.613403,0.974746,-0.199222,-0.044923,-26.271613,-60.234626,22.668781
1784155974.1182,15:52:54.118,11,false,0.390671,-0.496216,0.47406,0.613525,0.982071,-0.201175,-0.047364,-26.276328,-60.252515,22.644979
1784155974.1493,15:52:54.149,12,false,0.390324,-0.496338,0.47406,0.613647,0.977676,-0.207523,-0.046876,-26.23571,-60.313477,22.728234
1784155974.1805,15:52:54.180,13,false,0.390086,-0.496216,0.474304,0.613708,0.968887,-0.208011,-0.063966,-26.214107,-60.338435,22.862979
1784155974.2116,15:52:54.211,14,false,0.390189,-0.496094,0.474426,0.613647,0.97084,-0.20264,-0.048829,-26.149804,-60.196405,22.924434
1784155974.2428,15:52:54.242,15,false,0.390295,-0.495911,0.474609,0.613586,0.989883,-0.217288,-0.054688,-26.181653,-60.233071,22.830205
1784155974.2739,15:52:54.273,16,false,0.390004,-0.495972,0.474548,0.61377,0.980606,-0.203128,-0.060548,-26.210318,-60.131485,22.700538
1784155974.3052,15:52:54.305,17,false,0.38969,-0.496033,0.474426,0.614014,0.97377,-0.201663,-0.052247,-26.146393,-60.20455,22.74833
1784155974.3366,15:52:54.336,18,false,0.38969,-0.496033,0.474426,0.614014,0.979141,-0.195804,-0.057618,-26.193537,-60.300216,22.716573
1784155974.3679,15:52:54.367,19,false,0.389591,-0.496094,0.474365,0.614075,0.968399,-0.19971,-0.057618,-26.280829,-60.1321,22.762761
1784155974.3993,15:52:54.399,20,false,0.389073,-0.496338,0.47406,0.614441,0.969375,-0.208988,-0.06006,-26.209853,-60.055565,22.624884
1784155974.4304,15:52:54.430,21,false,0.389077,-0.496277,0.474121,0.614441,0.971817,-0.201663,-0.051759,-26.026344,-60.16613,22.575564
1784155974.4615,15:52:54.461,22,false,0.389106,-0.496155,0.474304,0.61438,0.973281,-0.207523,-0.052247,-25.980816,-60.160961,22.710623
1784155974.4927,15:52:54.492,23,false,0.388864,-0.496094,0.474487,0.614441,0.972793,-0.219242,-0.056641,-25.865072,-60.111448,22.757406
1784155974.5238,15:52:54.523,24,false,0.388948,-0.495911,0.474609,0.614441,0.972793,-0.208011,-0.050294,-25.940349,-60.291193,22.769603
1784155974.555,15:52:54.555,25,false,0.388803,-0.49585,0.474792,0.614441,0.972305,-0.212406,-0.056641,-25.873513,-60.213703,22.795534
1784155974.5861,15:52:54.586,26,false,0.388906,-0.495728,0.474915,0.61438,0.970352,-0.209476,-0.053712,-25.843269,-60.383223,22.863734
1784155974.6172,15:52:54.617,27,false,0.38909,-0.495483,0.475098,0.614319,0.982071,-0.209476,-0.051759,-25.86091,-60.266622,22.880252
1784155974.6484,15:52:54.648,28,false,0.389323,-0.4953,0.475098,0.614319,0.970352,-0.211429,-0.053712,-25.906695,-60.251404,22.93998
1784155974.6797,15:52:54.679,29,false,0.389524,-0.4953,0.474854,0.61438,0.976699,-0.198734,-0.063966,-25.90304,-60.312477,22.859151
1784155974.7111,15:52:54.711,30,false,0.38998,-0.495117,0.47467,0.61438,0.96791,-0.200198,-0.069825,-25.884797,-60.27772,22.831266
1784155974.7424,15:52:54.742,31,false,0.389961,-0.495056,0.47467,0.614441,0.964492,-0.202152,-0.056153,-25.898286,-60.246438,22.910846
1784155974.7738,15:52:54.773,0,false,0.389865,-0.495056,0.47467,0.614502,0.985977,-0.194827,-0.059083,-25.940333,-60.308008,22.862838
1784155974.8051,15:52:54.805,1,false,0.389943,-0.494995,0.47467,0.614502,0.968399,-0.199222,-0.054688,-25.948268,-60.273698,22.984122
1784155974.8364,15:52:54.836,2,false,0.390001,-0.494873,0.47467,0.614563,0.985977,-0.206058,-0.064942,-25.850733,-60.422264,23.018509
1784155974.8678,15:52:54.867,3,false,0.390076,-0.494873,0.474609,0.614563,0.971817,-0.208988,-0.065431,-25.852674,-60.346621,23.034504
1784155974.8989,15:52:54.898,4,false,0.390082,-0.494751,0.474731,0.614563,0.97084,-0.208988,-0.062501,-25.794606,-60.338357,23.033945
1784155974.9301,15:52:54.930,5,false,0.389713,-0.494873,0.47467,0.614746,0.969375,-0.191409,-0.0542,-25.787206,-60.25615,22.853996
1784155974.9612,15:52:54.961,6,false,0.389308,-0.495239,0.474304,0.61499,0.975723,-0.205081,-0.053223,-25.885223,-60.182164,22.796719
1784155974.9923,15:52:54.992,7,false,0.389112,-0.4953,0.474243,0.615112,0.97084,-0.218265,-0.049317,-25.808946,-60.205299,22.760123
1784155975.0235,15:52:55.023,8,false,0.388583,-0.495728,0.473755,0.615479,0.976211,-0.207034,-0.065919,-25.83002,-60.241075,22.502879
1784155975.0548,15:52:55.054,9,false,0.388595,-0.495911,0.473633,0.615417,0.980117,-0.191897,-0.053223,-25.819079,-60.213458,22.510622
1784155975.0862,15:52:55.086,10,false,0.388695,-0.49585,0.473694,0.615356,0.961074,-0.208499,-0.056153,-25.839139,-60.21851,22.562451
1784155975.1175,15:52:55.117,11,false,0.388673,-0.49585,0.473633,0.615417,0.980606,-0.199222,-0.065431,-25.84224,-60.208104,22.549282
1784155975.1488,15:52:55.148,12,false,0.388569,-0.495972,0.473511,0.615479,0.976211,-0.195804,-0.06006,-25.740354,-60.153876,22.462661
1784155975.1802,15:52:55.180,13,false,0.388495,-0.495972,0.473572,0.615479,0.97084,-0.210452,-0.0542,-25.872964,-60.105071,22.564148
1784155975.2115,15:52:55.211,14,false,0.388524,-0.49585,0.473755,0.615417,0.976211,-0.200198,-0.062501,-25.768005,-60.135916,22.625579
1784155975.2427,15:52:55.242,15,false,0.388249,-0.495972,0.473694,0.61554,0.972793,-0.203616,-0.062989,-25.793173,-60.17863,22.561235
1784155975.2738,15:52:55.273,16,false,0.388446,-0.495911,0.473755,0.615417,0.976699,-0.200687,-0.059571,-25.785916,-60.157258,22.563142
1784155975.3049,15:52:55.304,17,false,0.388529,-0.496155,0.473511,0.615356,0.972793,-0.195804,-0.069337,-25.809293,-60.197838,22.53495
1784155975.3361,15:52:55.336,18,false,0.388443,-0.496338,0.473389,0.615356,0.985489,-0.193362,-0.052735,-25.800424,-60.129683,22.434808
1784155975.3672,15:52:55.367,19,false,0.388243,-0.49646,0.473267,0.615479,0.980606,-0.212406,-0.058106,-25.777489,-60.008528,22.434404
1784155975.3986,15:52:55.398,20,false,0.38815,-0.496399,0.473328,0.61554,0.972305,-0.201663,-0.051759,-25.876478,-60.034073,22.493855
1784155975.4297,15:52:55.429,21,false,0.38835,-0.496277,0.47345,0.615417,0.984024,-0.208011,-0.060548,-25.845937,-60.191649,22.487546
1784155975.461,15:52:55.461,22,false,0.38822,-0.49646,0.473206,0.61554,0.978653,-0.201663,-0.067384,-25.848358,-60.258697,22.481867
1784155975.4924,15:52:55.492,23,false,0.388302,-0.496338,0.473267,0.61554,0.969375,-0.203128,-0.06006,-25.820629,-60.27418,22.551526
1784155975.5237,15:52:55.523,24,false,0.388149,-0.496521,0.472961,0.615723,0.985489,-0.196292,-0.058595,-25.795673,-60.258206,22.434773
1784155975.5551,15:52:55.555,25,false,0.387996,-0.496704,0.472656,0.615906,0.964492,-0.195804,-0.062501,-25.80312,-60.198968,22.479233
1784155975.5864,15:52:55.586,26,false,0.388097,-0.496643,0.472717,0.615845,0.965957,-0.19678,-0.064942,-25.884592,-60.220423,22.444478
1784155975.6175,15:52:55.617,27,false,0.388022,-0.496765,0.472412,0.616028,0.977676,-0.206058,-0.0542,-25.733609,-60.239733,22.33843
1784155975.6487,15:52:55.648,28,false,0.387898,-0.496826,0.47229,0.61615,0.983536,-0.197757,-0.064942,-25.866893,-60.331881,22.242986
1784155975.6798,15:52:55.679,29,false,0.388201,-0.496643,0.472473,0.615967,0.971817,-0.197757,-0.069337,-25.852265,-60.504537,22.426256
1784155975.711,15:52:55.711,30,false,0.388033,-0.496582,0.472595,0.616028,0.958633,-0.222171,-0.067384,-25.76433,-60.405712,22.411753
1784155975.7421,15:52:55.742,31,false,0.387858,-0.496643,0.472595,0.616089,0.981094,-0.208499,-0.049317,-25.640327,-60.361631,22.503377
1784155975.7732,15:52:55.773,0,false,0.387888,-0.496521,0.472778,0.616028,0.972793,-0.193362,-0.062989,-25.723124,-60.277097,22.555931
1784155975.8044,15:52:55.804,1,false,0.387769,-0.496521,0.472717,0.61615,0.972793,-0.208499,-0.064942,-25.857457,-60.141201,22.648091
1784155975.8357,15:52:55.835,2,false,0.387694,-0.496521,0.472778,0.61615,0.974258,-0.200198,-0.064454,-25.783957,-60.138525,22.521681
1784155975.8671,15:52:55.867,3,false,0.387772,-0.49646,0.472778,0.61615,0.981094,-0.198734,-0.067872,-25.762668,-60.091255,22.587358
1784155975.8984,15:52:55.898,4,false,0.387799,-0.496399,0.4729,0.616089,0.964492,-0.208011,-0.070314,-25.698646,-59.973943,22.676376
1784155975.9297,15:52:55.929,5,false,0.387873,-0.496399,0.472839,0.616089,0.964981,-0.187991,-0.064454,-25.655981,-59.973039,22.562091
1784155975.9611,15:52:55.961,6,false,0.38775,-0.49646,0.472717,0.616211,0.979141,-0.198245,-0.069337,-25.722259,-59.91241,22.519051
1784155975.9924,15:52:55.992,7,false,0.387548,-0.496582,0.472595,0.616333,0.978653,-0.194827,-0.065919,-25.677232,-60.022337,22.495268
1784155976.0236,15:52:56.023,8,false,0.387548,-0.496582,0.472595,0.616333,0.963027,-0.187503,-0.054688,-25.756339,-60.016594,22.503771
1784155976.0547,15:52:56.054,9,false,0.387159,-0.496948,0.47229,0.616516,0.971817,-0.203128,-0.053712,-25.707904,-60.07124,22.406747
1784155976.0859,15:52:56.085,10,false,0.387388,-0.496765,0.472534,0.616333,0.969375,-0.194339,-0.049805,-25.798898,-60.030699,22.483918
1784155976.117,15:52:56.117,11,false,0.387515,-0.496643,0.472717,0.616211,0.977188,-0.202152,-0.065431,-25.895746,-60.024119,22.568325
1784155976.1481,15:52:56.148,12,false,0.387519,-0.496582,0.472778,0.616211,0.986465,-0.210452,-0.059571,-26.087585,-60.033152,22.524661
1784155976.1795,15:52:56.179,13,false,0.387523,-0.496521,0.472839,0.616211,0.980117,-0.193851,-0.056641,-26.110703,-60.041281,22.619948
1784155976.2108,15:52:56.210,14,false,0.387441,-0.496643,0.472778,0.616211,0.97084,-0.195315,-0.058106,-26.101601,-60.13832,22.615984
1784155976.2422,15:52:56.242,15,false,0.387422,-0.496582,0.472778,0.616272,0.981582,-0.200687,-0.059083,-26.168179,-60.076117,22.657277
1784155976.2735,15:52:56.273,16,false,0.387452,-0.49646,0.472961,0.616211,0.97084,-0.210941,-0.053712,-26.063606,-60.035088,22.709395
1784155976.3048,15:52:56.304,17,false,0.387355,-0.49646,0.472961,0.616272,0.96791,-0.198734,-0.064942,-26.04426,-60.117793,22.726393
1784155976.336,15:52:56.336,18,false,0.387325,-0.496582,0.472778,0.616333,0.992325,-0.196292,-0.062501,-26.161433,-60.162319,22.607107
1784155976.3671,15:52:56.367,19,false,0.387119,-0.496765,0.472595,0.616455,0.977676,-0.210452,-0.064454,-26.057535,-60.187439,22.514703
1784155976.3983,15:52:56.398,20,false,0.387018,-0.496826,0.472534,0.616516,0.968399,-0.202152,-0.056641,-26.098612,-60.090416,22.491355
1784155976.4294,15:52:56.429,21,false,0.386917,-0.496887,0.472473,0.616577,0.977676,-0.209476,-0.068849,-26.090719,-60.137681,22.470342
1784155976.4605,15:52:56.460,22,false,0.387122,-0.496826,0.47229,0.616638,0.978164,-0.193362,-0.064454,-26.068662,-60.135357,22.391615
1784155976.4917,15:52:56.491,23,false,0.387095,-0.496887,0.472168,0.616699,0.992325,-0.196292,-0.071778,-25.959087,-60.118312,22.410483
1784155976.5228,15:52:56.522,24,false,0.386893,-0.497009,0.472046,0.616821,0.970352,-0.198734,-0.055177,-26.010008,-60.132879,22.36765
1784155976.554,15:52:56.554,25,false,0.386893,-0.497009,0.472046,0.616821,0.975235,-0.205081,-0.050294,-25.996022,-60.131035,22.478638
1784155976.5853,15:52:56.585,26,false,0.386533,-0.497253,0.471924,0.616943,0.977676,-0.210452,-0.064454,-25.908665,-60.054606,22.578527
1784155976.6166,15:52:56.616,27,false,0.386206,-0.497437,0.47168,0.617188,0.969863,-0.206058,-0.061036,-25.81509,-60.150313,22.623566
1784155976.648,15:52:56.648,28,false,0.386288,-0.497314,0.471741,0.617188,0.977188,-0.19971,-0.06006,-25.880411,-60.191588,22.664101
1784155976.6793,15:52:56.679,29,false,0.386292,-0.497253,0.471802,0.617188,0.975723,-0.201175,-0.063966,-25.999015,-60.333412,22.610859
1784155976.7107,15:52:56.710,30,false,0.386425,-0.49707,0.472046,0.617065,0.976699,-0.204105,-0.055177,-26.060898,-60.341422,22.637711
1784155976.742,15:52:56.742,31,false,0.386323,-0.497131,0.471985,0.617126,0.970352,-0.195315,-0.059083,-26.086684,-60.243955,22.691786
1784155976.7733,15:52:56.773,0,false,0.386245,-0.497192,0.471985,0.617126,0.964004,-0.192874,-0.056641,-26.079984,-60.245958,22.620822
1784155976.8045,15:52:56.804,1,false,0.386218,-0.497253,0.471863,0.617188,0.982559,-0.207034,-0.062989,-26.2534,-60.337483,22.646677
1784155976.8356,15:52:56.835,2,false,0.38612,-0.497253,0.471863,0.617249,0.971817,-0.200687,-0.055177,-26.155259,-60.360041,22.714809
1784155976.8668,15:52:56.866,3,false,0.386126,-0.497253,0.471619,0.617432,0.974746,-0.187991,-0.053712,-26.066933,-60.425204,22.67145
1784155976.8979,15:52:56.897,4,false,0.386139,-0.497131,0.471497,0.617615,0.974258,-0.190921,-0.062989,-25.972485,-60.394128,22.647382
1784155976.9292,15:52:56.929,5,false,0.386078,-0.497009,0.471436,0.617798,0.968399,-0.207523,-0.061524,-25.947297,-60.48579,22.610766
1784155976.9606,15:52:56.960,6,false,0.386209,-0.496155,0.470947,0.618774,0.985,-0.191897,-0.053712,-25.879766,-60.239301,22.503042
1784155976.9919,15:52:56.991,7,false,0.387419,-0.494263,0.470337,0.619995,0.959609,-0.202152,-0.056153,-25.818989,-60.241769,22.510768
1784155977.0233,15:52:57.023,8,false,0.388296,-0.492676,0.46991,0.621033,0.970352,-0.184573,-0.068849,-25.88392,-60.243991,22.622398
1784155977.0546,15:52:57.054,9,false,0.389031,-0.490479,0.468933,0.623047,0.997696,-0.19678,-0.077638,-25.79282,-60.17122,22.513512
1784155977.0859,15:52:57.085,10,false,0.389116,-0.489868,0.468689,0.623657,0.983047,-0.21387,-0.101564,-25.651014,-60.120681,22.580006
1784155977.1173,15:52:57.117,11,false,0.388953,-0.488831,0.468201,0.624939,0.97377,-0.228519,-0.098146,-25.657973,-60.239688,22.445451
1784155977.1484,15:52:57.148,12,false,0.388738,-0.488708,0.468018,0.625305,0.980117,-0.228031,-0.101564,-25.604421,-60.227163,22.339305
1784155977.1796,15:52:57.179,13,false,0.388645,-0.489075,0.467957,0.625122,0.969375,-0.208499,-0.096681,-25.526317,-60.215891,22.273682
1784155977.2107,15:52:57.210,14,false,0.388542,-0.489624,0.467957,0.624756,0.971328,-0.19678,-0.080079,-25.530792,-60.086116,22.154805
1784155977.2418,15:52:57.241,15,false,0.388098,-0.490112,0.467896,0.624695,0.961563,-0.207034,-0.081056,-25.579681,-60.103902,22.137539
1784155977.273,15:52:57.273,16,false,0.387758,-0.490479,0.467712,0.624756,0.974746,-0.203616,-0.078614,-25.533958,-59.955418,21.987415
1784155977.3041,15:52:57.304,17,false,0.387627,-0.490601,0.467529,0.624878,0.96791,-0.200687,-0.081544,-25.328316,-60.016182,22.046704
1784155977.3355,15:52:57.335,18,false,0.387761,-0.490417,0.467529,0.624939,0.989883,-0.20264,-0.089845,-25.352591,-59.87647,22.08511
1784155977.3668,15:52:57.366,19,false,0.386769,-0.490967,0.467529,0.625122,0.964492,-0.200198,-0.076661,-25.29967,-60.004944,22.014998
1784155977.3981,15:52:57.398,20,false,0.385785,-0.491333,0.467712,0.625305,0.966445,-0.220218,-0.085451,-25.341763,-60.060755,22.011713
1784155977.4295,15:52:57.429,21,false,0.385288,-0.491394,0.46814,0.625244,0.960586,-0.209964,-0.085451,-25.364694,-60.096032,22.02371
1784155977.4608,15:52:57.460,22,false,0.385292,-0.491333,0.468201,0.625244,0.964492,-0.207523,-0.069825,-25.250747,-60.082919,22.049462
1784155977.4922,15:52:57.492,23,false,0.385041,-0.491394,0.468262,0.625305,0.982071,-0.215824,-0.073243,-25.327641,-59.951487,22.177315
1784155977.5233,15:52:57.523,24,false,0.385271,-0.491272,0.468445,0.625122,0.978653,-0.201175,-0.079591,-25.322076,-60.057505,22.217613
1784155977.5545,15:52:57.554,25,false,0.385197,-0.491272,0.468506,0.625122,0.972305,-0.212406,-0.069825,-25.391837,-60.048245,22.253882
1784155977.5856,15:52:57.585,26,false,0.385303,-0.49115,0.468628,0.625061,0.972793,-0.218265,-0.080568,-25.379852,-60.099727,22.181847
1784155977.6167,15:52:57.616,27,false,0.385303,-0.49115,0.468628,0.625061,0.980606,-0.198734,-0.079591,-25.339158,-60.116152,22.161877
1784155977.6479,15:52:57.647,28,false,0.38525,-0.491211,0.468445,0.625183,0.983047,-0.195315,-0.084962,-25.317488,-60.220658,22.084089
1784155977.679,15:52:57.679,29,false,0.38532,-0.491272,0.468323,0.625183,0.975235,-0.208988,-0.074708,-25.387708,-60.329667,21.999125
1784155977.7104,15:52:57.710,30,false,0.385037,-0.491455,0.468201,0.625305,0.972793,-0.217288,-0.080079,-25.420998,-60.353006,22.027335
1784155977.7417,15:52:57.741,31,false,0.385267,-0.491333,0.468384,0.625122,0.977188,-0.203128,-0.074708,-25.436005,-60.403919,22.112539
1784155977.773,15:52:57.773,0,false,0.385242,-0.491333,0.468323,0.625183,0.973281,-0.200687,-0.077638,-25.494373,-60.614233,22.024731
1784155977.8044,15:52:57.804,1,false,0.385016,-0.491394,0.468201,0.625366,0.973281,-0.212894,-0.082033,-25.457181,-60.594162,21.960657
1784155977.8357,15:52:57.835,2,false,0.384697,-0.491333,0.468201,0.62561,0.96791,-0.201175,-0.09131,-25.483523,-60.66582,21.813268
1784155977.8671,15:52:57.867,3,false,0.384512,-0.491089,0.468201,0.625916,0.97377,-0.211917,-0.086915,-25.567047,-60.565821,21.845109
1784155977.8982,15:52:57.898,4,false,0.383792,-0.491089,0.468628,0.626038,0.973281,-0.192386,-0.075685,-25.672126,-60.475822,21.873767
1784155977.9293,15:52:57.929,5,false,0.382968,-0.491577,0.469116,0.625793,0.981094,-0.199222,-0.079591,-25.691928,-60.439684,21.794882
1784155977.9605,15:52:57.960,6,false,0.380941,-0.492859,0.469421,0.625793,0.960586,-0.220706,-0.052735,-25.634981,-60.437067,21.679024
1784155977.9916,15:52:57.991,7,false,0.380471,-0.493164,0.469482,0.625793,0.965957,-0.218753,-0.061524,-25.523913,-60.494528,21.634567
1784155978.0228,15:52:58.022,8,false,0.380397,-0.49353,0.469238,0.625732,0.965469,-0.221683,-0.074708,-25.57349,-60.471473,21.624463
1784155978.0539,15:52:58.053,9,false,0.381032,-0.493408,0.469177,0.625488,0.969863,-0.215824,-0.075685,-25.588202,-60.450724,21.660232
1784155978.0852,15:52:58.085,10,false,0.381886,-0.493347,0.469116,0.625061,0.985977,-0.187503,-0.067384,-25.556581,-60.282511,21.722331
1784155978.1166,15:52:58.116,11,false,0.381832,-0.493408,0.469177,0.625,0.992813,-0.189944,-0.065431,-25.572983,-60.310566,21.628682
1784155978.1479,15:52:58.147,12,false,0.381078,-0.493469,0.469238,0.625366,0.960586,-0.204593,-0.057618,-25.52793,-60.141415,21.634121
1784155978.1793,15:52:58.179,13,false,0.380109,-0.493713,0.468872,0.626038,0.966934,-0.221683,-0.078614,-25.412613,-60.168626,21.5792
1784155978.2106,15:52:58.210,14,false,0.379941,-0.493591,0.468811,0.626282,0.974258,-0.219242,-0.080568,-25.368644,-60.103392,21.67931
1784155978.2417,15:52:58.241,15,false,0.379862,-0.493652,0.468811,0.626282,0.98793,-0.210941,-0.072267,-25.418794,-60.059636,21.754455
1784155978.2731,15:52:58.273,16,false,0.379302,-0.494141,0.46875,0.626282,0.973281,-0.210941,-0.073243,-25.434021,-60.169793,21.64264
1784155978.3042,15:52:58.304,17,false,0.378928,-0.494446,0.468567,0.626404,0.967422,-0.206546,-0.075196,-25.447726,-60.239027,21.542006
1784155978.3354,15:52:58.335,18,false,0.378318,-0.494507,0.468506,0.62677,0.969375,-0.204593,-0.079103,-25.504922,-60.166753,21.511251
1784155978.3665,15:52:58.366,19,false,0.377782,-0.494568,0.468384,0.627136,0.974258,-0.211917,-0.064454,-25.481629,-60.206384,21.663018
1784155978.3976,15:52:58.397,20,false,0.377566,-0.494385,0.468506,0.627319,0.966934,-0.214359,-0.083009,-25.445711,-60.122421,21.665023
1784155978.4288,15:52:58.428,21,false,0.377465,-0.494385,0.468506,0.62738,0.970352,-0.211429,-0.073732,-25.458247,-60.076761,21.741597
1784155978.4601,15:52:58.460,22,false,0.377941,-0.49408,0.468689,0.627197,0.985977,-0.215335,-0.083497,-25.439622,-60.095483,21.765652
1784155978.4915,15:52:58.491,23,false,0.377967,-0.493652,0.468628,0.627563,0.971817,-0.216312,-0.087404,-25.348089,-60.261871,21.847117
1784155978.5228,15:52:58.522,24,false,0.378033,-0.493408,0.46875,0.627625,0.976211,-0.19678,-0.093263,-25.46011,-60.232175,21.86062
1784155978.5541,15:52:58.554,25,false,0.377644,-0.493591,0.469116,0.627441,0.988907,-0.217777,-0.062989,-25.336622,-60.235355,21.977449
1784155978.5855,15:52:58.585,26,false,0.376809,-0.494385,0.46936,0.627136,0.967422,-0.219242,-0.063478,-25.240436,-60.253172,21.918104
1784155978.6168,15:52:58.616,27,false,0.376253,-0.495117,0.469604,0.626709,0.952285,-0.226078,-0.054688,-25.378176,-60.194437,21.96937
1784155978.648,15:52:58.648,28,false,0.376837,-0.495117,0.469543,0.626404,0.963027,-0.217288,-0.072267,-25.472234,-60.335976,22.120186
1784155978.6793,15:52:58.679,29,false,0.377723,-0.495117,0.469238,0.626099,0.971817,-0.208011,-0.067384,-25.45221,-60.403546,22.136289
1784155978.7104,15:52:58.710,30,false,0.378872,-0.4953,0.468933,0.625488,0.969375,-0.195804,-0.065919,-25.419235,-60.524174,22.06106
1784155978.7416,15:52:58.741,31,false,0.379022,-0.495667,0.468506,0.625427,0.970352,-0.201175,-0.073243,-25.524141,-60.528062,22.157845
1784155978.7727,15:52:58.772,0,false,0.379324,-0.495667,0.468506,0.625244,0.969375,-0.209476,-0.061524,-25.454065,-60.441839,22.110368
1784155978.8039,15:52:58.803,1,false,0.37958,-0.495605,0.468445,0.625183,0.97377,-0.218753,-0.069825,-25.540534,-60.439007,22.1125
1784155978.8352,15:52:58.835,2,false,0.380116,-0.495483,0.468628,0.624817,0.964981,-0.208499,-0.06836,-25.588449,-60.451412,22.099464
1784155978.8666,15:52:58.866,3,false,0.380582,-0.495972,0.468384,0.624329,0.980606,-0.205081,-0.064454,-25.631573,-60.3579,22.11764
1784155978.8979,15:52:58.897,4,false,0.380694,-0.496155,0.468262,0.624207,0.975723,-0.204593,-0.063478,-25.700292,-60.333554,22.014368
1784155978.9292,15:52:58.929,5,false,0.381062,-0.496582,0.468079,0.623779,0.964981,-0.218753,-0.062989,-25.492969,-60.341551,22.056007
1784155978.9606,15:52:58.960,6,false,0.381064,-0.496887,0.467834,0.623718,0.959609,-0.196292,-0.06006,-25.695179,-60.333794,21.928991
1784155978.9919,15:52:58.991,7,false,0.381059,-0.496948,0.467773,0.623718,0.977676,-0.199222,-0.063966,-25.802399,-60.401582,22.038983
1784155979.0233,15:52:59.023,8,false,0.381368,-0.496826,0.467896,0.623535,0.985,-0.19678,-0.06836,-25.809174,-60.328006,22.048253
1784155979.0544,15:52:59.054,9,false,0.381234,-0.496948,0.467712,0.623657,0.970352,-0.190433,-0.072755,-25.800317,-60.321604,21.922012
1784155979.0855,15:52:59.085,10,false,0.3814,-0.497375,0.467041,0.623718,0.972305,-0.20264,-0.081056,-25.672715,-60.315841,21.808395
1784155979.1167,15:52:59.116,11,false,0.381006,-0.497925,0.466614,0.62384,0.976211,-0.208011,-0.074708,-25.602735,-60.280748,21.885585
1784155979.1478,15:52:59.147,12,false,0.381366,-0.497803,0.466858,0.623535,0.984024,-0.200198,-0.073243,-25.674338,-60.413656,22.014872
1784155979.1792,15:52:59.179,13,false,0.38183,-0.49762,0.467163,0.623169,0.961074,-0.208988,-0.065919,-25.73878,-60.383734,22.056461
1784155979.2103,15:52:59.210,14,false,0.382183,-0.497559,0.46759,0.622681,0.973281,-0.210941,-0.063478,-25.64724,-60.431574,22.168661
1784155979.2416,15:52:59.241,15,false,0.382911,-0.497437,0.468018,0.622009,0.961563,-0.186038,-0.065919,-25.594761,-60.355,22.194871
1784155979.273,15:52:59.273,16,false,0.382733,-0.497803,0.467773,0.622009,0.971817,-0.190921,-0.068849,-25.487715,-60.31599,21.949291
1784155979.3043,15:52:59.304,17,false,0.382753,-0.497864,0.467773,0.621948,0.970352,-0.193362,-0.059571,-25.361466,-60.460328,21.952576
1784155979.3357,15:52:59.335,18,false,0.382699,-0.497925,0.46759,0.62207,0.977188,-0.209476,-0.065919,-25.427288,-60.410785,21.880764
1784155979.3669,15:52:59.366,19,false,0.38262,-0.497986,0.467346,0.622253,0.979141,-0.198734,-0.073243,-25.45662,-60.246566,21.92081
1784155979.398,15:52:59.398,20,false,0.3827,-0.497925,0.467346,0.622253,0.979629,-0.197757,-0.055177,-25.587695,-60.323077,21.882082
1784155979.4292,15:52:59.429,21,false,0.382859,-0.497803,0.467346,0.622253,0.969375,-0.198245,-0.064942,-25.541171,-60.406891,21.93695
1784155979.4603,15:52:59.460,22,false,0.383581,-0.497131,0.467468,0.622253,0.986954,-0.198245,-0.070314,-25.589022,-60.422507,22.001285
1784155979.4915,15:52:59.491,23,false,0.383996,-0.496887,0.467468,0.622192,0.985,-0.197757,-0.079591,-25.632089,-60.436562,22.029279
1784155979.5226,15:52:59.522,24,false,0.384332,-0.496704,0.467468,0.622131,0.97084,-0.194827,-0.067384,-25.581125,-60.329581,22.114289
1784155979.5537,15:52:59.553,25,false,0.384395,-0.496521,0.467529,0.622192,0.971328,-0.206058,-0.076661,-25.595073,-60.323021,22.101075
1784155979.5849,15:52:59.584,26,false,0.38445,-0.49646,0.467468,0.622253,0.980606,-0.193851,-0.085939,-25.562765,-60.391886,22.148997
1784155979.6162,15:52:59.616,27,false,0.384623,-0.49646,0.467407,0.622192,0.985,-0.209476,-0.069825,-25.578549,-60.304327,22.16222
1784155979.6476,15:52:59.647,28,false,0.384328,-0.496765,0.467163,0.622314,0.969375,-0.207034,-0.079103,-25.547894,-60.150754,22.144213
1784155979.6789,15:52:59.678,29,false,0.384309,-0.497009,0.466919,0.622314,0.978164,-0.204593,-0.071778,-25.580119,-60.102261,22.098098
1784155979.7102,15:52:59.710,30,false,0.384433,-0.497314,0.46698,0.621948,0.971817,-0.208011,-0.072755,-25.444629,-60.013756,22.086503
1784155979.7416,15:52:59.741,31,false,0.384556,-0.49762,0.467041,0.621582,0.975235,-0.192874,-0.075196,-25.397458,-60.068686,21.896622
1784155979.7727,15:52:59.772,0,false,0.384609,-0.498474,0.466736,0.621094,0.976699,-0.186526,-0.083009,-25.53445,-60.118123,21.905174
1784155979.8039,15:52:59.803,1,false,0.384783,-0.499023,0.466736,0.620544,0.99379,-0.210452,-0.075685,-25.582973,-59.983171,22.017548
1784155979.835,15:52:59.835,2,false,0.385044,-0.49939,0.467102,0.619812,0.969863,-0.205081,-0.071778,-25.596737,-59.936483,22.043916
1784155979.8661,15:52:59.866,3,false,0.385656,-0.499878,0.467773,0.61853,0.977188,-0.173831,-0.07129,-25.519401,-59.834648,22.15737
1784155979.8973,15:52:59.897,4,false,0.3864,-0.499939,0.468384,0.617554,0.975235,-0.189944,-0.073243,-25.704014,-59.892535,22.22957
1784155979.9284,15:52:59.928,5,false,0.387393,-0.500366,0.469116,0.616028,0.975723,-0.174319,-0.062501,-25.690719,-59.795095,22.324459
1784155979.9598,15:52:59.959,6,false,0.387632,-0.50061,0.469299,0.61554,0.985,-0.178714,-0.055177,-25.693708,-59.871891,22.394905
1784155979.9911,15:52:59.991,7,false,0.387623,-0.501526,0.469849,0.61438,0.976699,-0.189456,-0.047852,-25.801075,-59.836331,22.413444
1784155980.0224,15:53:00.022,8,false,0.387692,-0.502197,0.470032,0.613647,0.968887,-0.18262,-0.045899,-25.718259,-59.804327,22.474991
1784155980.0538,15:53:00.053,9,false,0.387877,-0.502869,0.470276,0.612793,0.968887,-0.193362,-0.0542,-25.70354,-59.760569,22.575245
1784155980.0851,15:53:00.085,10,false,0.388487,-0.503113,0.470703,0.611877,0.988418,-0.204593,-0.059083,-25.615523,-59.721187,22.740243
1784155980.1163,15:53:00.116,11,false,0.389004,-0.50354,0.471008,0.610962,0.986465,-0.19678,-0.0542,-25.760616,-59.835282,22.634526
1784155980.1474,15:53:00.147,12,false,0.390448,-0.504578,0.471863,0.608521,0.973281,-0.183597,-0.04004,-25.831385,-59.878152,22.673965
1784155980.1786,15:53:00.178,13,false,0.392072,-0.50531,0.472717,0.606201,0.992813,-0.180667,-0.043946,-25.954892,-59.931689,22.754321
1784155980.2097,15:53:00.209,14,false,0.393451,-0.506042,0.473755,0.603882,0.972305,-0.149416,-0.031739,-26.006232,-59.74061,22.811689
1784155980.2408,15:53:00.240,15,false,0.395443,-0.507263,0.47467,0.60083,0.972305,-0.146975,-0.03711,-26.082347,-59.538732,22.893227
1784155980.272,15:53:00.272,16,false,0.396729,-0.507507,0.475342,0.599243,0.976211,-0.145022,-0.032227,-25.986357,-59.551442,23.175965
1784155980.3031,15:53:00.303,17,false,0.398123,-0.507141,0.476257,0.5979,0.985489,-0.127443,-0.016602,-25.959782,-59.473157,23.16126
1784155980.3343,15:53:00.334,18,false,0.398247,-0.506958,0.476501,0.597778,0.979629,-0.139162,-0.016114,-26.025588,-59.492424,23.192887
1784155980.3656,15:53:00.365,19,false,0.398562,-0.505615,0.476746,0.598511,0.979141,-0.144045,-0.040528,-26.159582,-59.479857,23.221351
1784155980.3969,15:53:00.396,20,false,0.398124,-0.504944,0.476135,0.599854,0.985489,-0.167971,-0.056153,-26.130639,-59.498454,23.321739
1784155980.4283,15:53:00.428,21,false,0.397385,-0.503235,0.476868,0.601196,0.996231,-0.198245,-0.059083,-26.313943,-59.545099,23.576579
1784155980.4596,15:53:00.459,22,false,0.397288,-0.502502,0.478027,0.600952,0.985977,-0.201663,-0.044434,-26.284517,-59.542218,23.581628
1784155980.491,15:53:00.491,23,false,0.397605,-0.502502,0.47876,0.600159,0.972793,-0.161624,-0.031739,-26.392618,-59.524671,23.466542
1784155980.5221,15:53:00.522,24,false,0.397938,-0.502808,0.479004,0.599487,0.983536,-0.157229,-0.023926,-26.280556,-59.62851,23.557364
1784155980.5532,15:53:00.553,25,false,0.397964,-0.502991,0.478943,0.599365,0.975235,-0.159182,-0.015137,-26.538592,-59.602334,23.54938
1784155980.5844,15:53:00.584,26,false,0.397661,-0.502808,0.478699,0.599915,0.97084,-0.174807,-0.04004,-26.486701,-59.593729,23.497334
1784155980.6155,15:53:00.615,27,false,0.397474,-0.502502,0.478333,0.600586,0.976211,-0.164553,-0.028321,-26.425045,-59.52617,23.644892
1784155980.6467,15:53:00.646,28,false,0.397406,-0.502014,0.477905,0.601379,0.976211,-0.167483,-0.039063,-26.414417,-59.584997,23.807602
1784155980.6778,15:53:00.677,29,false,0.397495,-0.500916,0.4776,0.602478,0.974746,-0.194827,-0.044923,-26.35999,-59.563173,23.744687
1784155980.7091,15:53:00.709,30,false,0.397541,-0.500183,0.477173,0.603394,0.974258,-0.184085,-0.043946,-26.370821,-59.633253,23.777787
1784155980.7405,15:53:00.740,31,false,0.397584,-0.499451,0.476746,0.604309,0.984512,-0.20264,-0.035157,-26.335707,-59.591649,23.7029
1784155980.7718,15:53:00.771,0,false,0.398171,-0.498413,0.476257,0.605164,0.99379,-0.182132,-0.049805,-26.199428,-59.628975,23.770086
1784155980.8032,15:53:00.803,1,false,0.398743,-0.497803,0.475952,0.60553,0.999649,-0.18262,-0.059083,-26.151546,-59.662568,23.725877
1784155980.8345,15:53:00.834,2,false,0.399334,-0.497009,0.475586,0.606079,0.985977,-0.184573,-0.05127,-26.168267,-59.662894,23.641227
1784155980.8656,15:53:00.865,3,false,0.399413,-0.496765,0.475464,0.606323,0.982071,-0.184085,-0.055665,-26.183317,-59.708049,23.565042
1784155980.8968,15:53:00.896,4,false,0.400441,-0.495605,0.475342,0.606689,0.979141,-0.177249,-0.059571,-26.211815,-59.763642,23.511429
1784155980.9279,15:53:00.927,5,false,0.40137,-0.494629,0.475342,0.606873,0.988907,-0.168948,-0.059571,-26.297279,-59.873491,23.403363
1784155980.9591,15:53:00.959,6,false,0.402402,-0.493591,0.475159,0.607178,0.983047,-0.185061,-0.055665,-26.314381,-59.837771,23.321056
1784155980.9902,15:53:00.990,7,false,0.403121,-0.492981,0.474792,0.607483,0.977188,-0.173342,-0.062989,-26.210142,-59.775715,23.246981
1784155981.0213,15:53:01.021,8,false,0.404072,-0.492371,0.474304,0.607727,0.969863,-0.161135,-0.066407,-26.161189,-59.854449,23.28499
1784155981.0525,15:53:01.052,9,false,0.405273,-0.491821,0.473145,0.608276,0.981094,-0.181155,-0.075196,-26.102177,-59.760818,23.244428
1784155981.0836,15:53:01.083,10,false,0.405808,-0.491455,0.472595,0.608643,0.992325,-0.170413,-0.081056,-26.06402,-59.706457,23.252785
1784155981.115,15:53:01.115,11,false,0.406458,-0.490967,0.472229,0.608887,0.985977,-0.167971,-0.06836,-26.209124,-59.792117,23.125721
1784155981.1463,15:53:01.146,12,false,0.407031,-0.490784,0.471375,0.609314,0.975235,-0.163088,-0.072755,-26.160273,-59.869211,23.071179
1784155981.1776,15:53:01.177,13,false,0.407653,-0.490784,0.47052,0.609558,0.978164,-0.170901,-0.079591,-26.206029,-59.923642,22.872553
1784155981.209,15:53:01.209,14,false,0.408528,-0.490601,0.469238,0.610107,0.982071,-0.172854,-0.084962,-26.187395,-59.957676,22.783512
1784155981.2403,15:53:01.240,15,false,0.409248,-0.490356,0.468628,0.610291,0.976699,-0.165042,-0.090822,-26.215485,-60.018214,22.703376
1784155981.2716,15:53:01.271,16,false,0.409972,-0.489868,0.468506,0.610291,0.980117,-0.166995,-0.085939,-26.225813,-59.982976,22.601345
1784155981.3027,15:53:01.302,17,false,0.410409,-0.489624,0.46814,0.610474,0.984024,-0.174319,-0.086427,-26.190246,-59.876492,22.47961
1784155981.3338,15:53:01.333,18,false,0.410909,-0.489258,0.468323,0.610291,0.97377,-0.16846,-0.098146,-26.098421,-59.99001,22.459771
1784155981.365,15:53:01.365,19,false,0.411586,-0.488953,0.468445,0.609985,0.97377,-0.155764,-0.092287,-26.015778,-60.017407,22.292378
1784155981.3961,15:53:01.396,20,false,0.411884,-0.488831,0.468628,0.609741,0.982559,-0.160159,-0.085939,-25.911492,-59.862618,22.32117
1784155981.4273,15:53:01.427,21,false,0.41211,-0.488892,0.469238,0.60907,0.970352,-0.158694,-0.084962,-25.982126,-59.842939,22.25736
1784155981.4584,15:53:01.458,22,false,0.412068,-0.489014,0.469543,0.608765,0.974258,-0.163088,-0.084962,-25.985882,-59.780366,22.289654
1784155981.4898,15:53:01.489,23,false,0.412145,-0.489136,0.469666,0.608521,0.986954,-0.157229,-0.090333,-25.899539,-59.813774,22.453304
1784155981.5211,15:53:01.521,24,false,0.412111,-0.489258,0.469727,0.608398,0.986465,-0.157717,-0.082033,-25.911554,-59.963472,22.406188
1784155981.5524,15:53:01.552,25,false,0.411864,-0.489624,0.469482,0.608459,0.985,-0.169436,-0.082033,-25.772828,-60.068292,22.423599
1784155981.5838,15:53:01.583,26,false,0.411406,-0.490173,0.468994,0.608704,0.989883,-0.169924,-0.079103,-25.752652,-59.953276,22.394408
1784155981.6151,15:53:01.615,27,false,0.411115,-0.49054,0.468628,0.608887,0.990372,-0.163577,-0.092287,-25.824217,-60.089024,22.278413
1784155981.6463,15:53:01.646,28,false,0.411018,-0.490784,0.468933,0.608521,0.978653,-0.149905,-0.078126,-25.888625,-59.956981,22.308601
1784155981.6774,15:53:01.677,29,false,0.4103,-0.491028,0.469543,0.608337,0.978164,-0.166995,-0.066896,-25.886777,-59.927866,22.365679
1784155981.7087,15:53:01.708,30,false,0.409617,-0.491272,0.469727,0.608459,0.968887,-0.155764,-0.074708,-25.795391,-59.931569,22.357233
1784155981.7399,15:53:01.739,31,false,0.408233,-0.49176,0.469788,0.608948,0.968887,-0.177737,-0.064454,-26.072036,-59.830226,22.364586
1784155981.771,15:53:01.771,0,false,0.407879,-0.491943,0.469666,0.609131,0.984024,-0.170901,-0.069337,-26.111662,-59.798832,22.386157
1784155981.8022,15:53:01.802,1,false,0.4077,-0.492126,0.469788,0.609009,0.983536,-0.167483,-0.065919,-26.252003,-59.695809,22.585018
1784155981.8333,15:53:01.833,2,false,0.40736,-0.492432,0.469604,0.609131,0.986954,-0.178225,-0.076173,-26.258679,-59.737672,22.539685
1784155981.8646,15:53:01.864,3,false,0.407002,-0.492676,0.469421,0.609314,0.978653,-0.166995,-0.087892,-26.234779,-59.820211,22.648423
1784155981.896,15:53:01.896,4,false,0.406686,-0.492676,0.469299,0.609619,0.972793,-0.166018,-0.078126,-26.258131,-59.789819,22.686473
1784155981.9273,15:53:01.927,5,false,0.406629,-0.49292,0.468933,0.609741,0.972305,-0.160159,-0.086427,-26.264194,-59.822281,22.630994
1784155981.9587,15:53:01.958,6,false,0.406037,-0.493958,0.467957,0.610046,0.981094,-0.155764,-0.082033,-26.34442,-59.806636,22.68574
1784155981.99,15:53:01.990,7,false,0.405289,-0.494812,0.467224,0.610413,1.000626,-0.155276,-0.081056,-26.341854,-59.687878,22.630334
1784155982.0211,15:53:02.021,8,false,0.403577,-0.496033,0.466614,0.611023,0.986465,-0.171389,-0.083009,-26.219914,-59.506227,22.715054
1784155982.0523,15:53:02.052,9,false,0.402197,-0.496948,0.466431,0.611328,0.978164,-0.175296,-0.07129,-26.244753,-59.552095,22.701579
1784155982.0834,15:53:02.083,10,false,0.400759,-0.49762,0.466553,0.611633,0.978164,-0.177249,-0.061524,-26.326923,-59.488699,22.644589
1784155982.1146,15:53:02.114,11,false,0.399408,-0.49823,0.46698,0.611694,0.982071,-0.175296,-0.062989,-26.251337,-59.326965,22.802653
1784155982.1457,15:53:02.145,12,false,0.398243,-0.498901,0.466858,0.612,0.978653,-0.166995,-0.056153,-26.228172,-59.166452,22.720602
1784155982.1768,15:53:02.176,13,false,0.397443,-0.49939,0.466858,0.612122,0.974746,-0.174319,-0.056641,-26.192369,-59.14162,22.616849
1784155982.208,15:53:02.208,14,false,0.396429,-0.499878,0.466797,0.612427,0.968887,-0.174319,-0.058106,-26.234916,-59.164133,22.568333
1784155982.2393,15:53:02.239,15,false,0.396402,-0.499878,0.46698,0.612305,0.966445,-0.175784,-0.057618,-26.183485,-59.274118,22.644299
1784155982.2707,15:53:02.270,16,false,0.396425,-0.499878,0.467041,0.612244,0.975723,-0.174319,-0.064454,-26.137197,-59.268427,22.607991
1784155982.302,15:53:02.302,17,false,0.396457,-0.499756,0.467224,0.612183,0.980117,-0.193362,-0.056153,-26.260031,-59.308167,22.769714
1784155982.3333,15:53:02.333,18,false,0.396502,-0.499756,0.467346,0.612061,0.977676,-0.177249,-0.052247,-26.191135,-59.239256,22.631142
1784155982.3647,15:53:02.364,19,false,0.396635,-0.499817,0.467407,0.611877,0.978653,-0.175296,-0.057618,-26.084266,-59.356683,22.581197
1784155982.3958,15:53:02.395,20,false,0.397361,-0.499329,0.467712,0.611572,0.982071,-0.168948,-0.055665,-25.988085,-59.387597,22.640922
1784155982.427,15:53:02.427,21,false,0.398111,-0.49884,0.467834,0.611389,0.978164,-0.163577,-0.073732,-25.946384,-59.41542,22.619906
1784155982.4581,15:53:02.458,22,false,0.399546,-0.498291,0.467834,0.610901,0.988907,-0.183108,-0.074708,-26.088298,-59.410553,22.675761
1784155982.4892,15:53:02.489,23,false,0.402306,-0.498901,0.467285,0.609009,0.977188,-0.226566,-0.083497,-26.126298,-59.465988,22.711077
1784155982.5204,15:53:02.520,24,false,0.405057,-0.501038,0.465637,0.606689,0.983536,-0.235843,-0.073243,-26.085729,-59.396249,22.668091
1784155982.5515,15:53:02.551,25,false,0.408803,-0.505188,0.46167,0.60376,0.964004,-0.234379,-0.058595,-26.213709,-59.168992,22.614451
1784155982.5827,15:53:02.582,26,false,0.419211,-0.514221,0.451294,0.596802,0.972793,-0.154788,-0.052735,-26.313937,-58.874737,22.611036
1784155982.614,15:53:02.614,27,false,0.427541,-0.519409,0.443665,0.592102,0.981094,-0.104005,-0.055177,-26.478912,-58.58,22.712639
1784155982.6453,15:53:02.645,28,false,0.440336,-0.523804,0.433899,0.58606,0.943984,-0.067384,-0.056641,-26.55262,-58.269875,22.669498
1784155982.6767,15:53:02.676,29,false,0.444999,-0.523804,0.431274,0.584473,0.970352,0.020508,-0.060548,-26.783449,-57.975809,22.615716
1784155982.708,15:53:02.708,30,false,0.459118,-0.520874,0.424255,0.581299,0.953262,0.049317,-0.062501,-27.080919,-57.696196,22.582267
1784155982.7394,15:53:02.739,31,false,0.472513,-0.514099,0.417847,0.581238,0.960586,0.066896,-0.106447,-27.079472,-57.160421,22.38767
1784155982.7707,15:53:02.770,0,false,0.479537,-0.507751,0.413757,0.583984,0.976211,0.064454,-0.129397,-27.242663,-56.812808,22.092903
1784155982.8021,15:53:02.802,1,false,0.487437,-0.497192,0.408569,0.590149,0.989883,0.083986,-0.158694,-27.404488,-56.664448,21.947243
1784155982.8332,15:53:02.833,2,false,0.489358,-0.493347,0.407043,0.592834,0.946426,0.00293,-0.178225,-27.400592,-56.456155,21.681564
1784155982.8643,15:53:02.864,3,false,0.494571,-0.48175,0.401428,0.601807,0.976211,0.019532,-0.211429,-27.382132,-56.208877,21.35273
1784155982.8955,15:53:02.895,4,false,0.497093,-0.476074,0.395569,0.608093,0.998184,0.016602,-0.257328,-27.171118,-56.105957,20.907241
1784155982.9266,15:53:02.926,5,false,0.499519,-0.470642,0.387024,0.615784,1.037736,-0.03418,-0.315435,-26.906436,-55.968467,20.401624
1784155982.958,15:53:02.958,6,false,0.500443,-0.468689,0.383118,0.618958,1.008438,0.01709,-0.328618,-26.817761,-55.740049,19.946569
1784155982.9891,15:53:02.989,7,false,0.500047,-0.468384,0.379944,0.62146,0.981582,0.017578,-0.335454,-26.693092,-55.594289,19.417389
1784155983.0204,15:53:03.020,8,false,0.499319,-0.469543,0.377563,0.62262,0.959609,0.027344,-0.309087,-26.401443,-55.358427,19.090665
1784155983.0518,15:53:03.051,9,false,0.499083,-0.471008,0.377258,0.621887,0.969375,0.042969,-0.291997,-26.168868,-55.056429,18.70689
1784155983.0831,15:53:03.083,10,false,0.49826,-0.472839,0.377563,0.620972,0.991348,0.024903,-0.283696,-26.064226,-54.904262,18.436262
1784155983.1145,15:53:03.114,11,false,0.496789,-0.475403,0.379883,0.618774,0.969375,0.026856,-0.270512,-25.970049,-54.722449,18.297374
1784155983.1456,15:53:03.145,12,false,0.4953,-0.477112,0.38147,0.617676,0.961074,0.030762,-0.250492,-25.735751,-54.678449,18.142467
1784155983.1769,15:53:03.176,13,false,0.493449,-0.479187,0.383728,0.61615,0.965957,-0.012207,-0.248539,-25.599652,-54.638848,17.928281
1784155983.2083,15:53:03.208,14,false,0.493105,-0.479797,0.384583,0.615417,0.963027,0.006348,-0.230961,-25.641655,-54.543392,17.750468
1784155983.2394,15:53:03.239,15,false,0.492114,-0.481689,0.387085,0.613159,0.95668,0.006348,-0.235843,-25.634597,-54.397667,17.60539
1784155983.2706,15:53:03.270,16,false,0.491854,-0.4823,0.38916,0.611572,0.984512,-0.01416,-0.241703,-25.523567,-54.356237,17.459866
1784155983.3017,15:53:03.301,17,false,0.492245,-0.482544,0.393127,0.608521,0.996719,0.004395,-0.225589,-25.61804,-54.184366,17.583109
1784155983.3328,15:53:03.332,18,false,0.491799,-0.482605,0.39624,0.606812,0.989395,0.000977,-0.225589,-25.658205,-54.239035,17.619259
1784155983.364,15:53:03.364,19,false,0.490563,-0.483032,0.399109,0.605591,0.974746,-0.025391,-0.217288,-25.72426,-54.168607,17.427487
1784155983.3953,15:53:03.395,20,false,0.489549,-0.483643,0.403198,0.60321,0.957656,-0.026368,-0.194827,-25.828572,-54.344483,17.449291
1784155983.4267,15:53:03.426,21,false,0.489356,-0.484131,0.405212,0.601624,0.981094,-0.038575,-0.186526,-25.817775,-54.353233,17.468915
1784155983.458,15:53:03.458,22,false,0.489166,-0.485535,0.407104,0.599365,0.964004,-0.008789,-0.196292,-25.808059,-54.286339,17.666023
1784155983.4893,15:53:03.489,23,false,0.489254,-0.486694,0.40741,0.598145,0.951308,0.006836,-0.193851,-25.78436,-54.345765,17.64902
1784155983.5205,15:53:03.520,24,false,0.489784,-0.487305,0.407654,0.597046,0.960098,-0.011719,-0.198245,-25.882661,-54.459063,17.828118
1784155983.5516,15:53:03.551,25,false,0.490434,-0.487366,0.409119,0.595459,0.986465,-0.014649,-0.204593,-26.015994,-54.411494,18.019213
1784155983.583,15:53:03.583,26,false,0.491056,-0.487244,0.410645,0.593994,0.971817,-0.015625,-0.209476,-26.135994,-54.338773,18.086522
1784155983.6141,15:53:03.614,27,false,0.491912,-0.487549,0.411987,0.592102,0.999649,-0.021485,-0.20264,-26.109409,-54.333141,18.132146
1784155983.6452,15:53:03.645,28,false,0.493205,-0.488464,0.414856,0.588257,0.996719,-0.007813,-0.182132,-26.175206,-54.223394,18.188162
1784155983.6764,15:53:03.676,29,false,0.493978,-0.490234,0.416077,0.585266,0.983536,-0.000488,-0.178714,-26.279284,-54.169484,18.492791
1784155983.7075,15:53:03.707,30,false,0.495111,-0.494568,0.416016,0.580688,1.016739,-0.011231,-0.167971,-26.358001,-54.18078,18.602465
1784155983.7389,15:53:03.738,31,false,0.495452,-0.496216,0.416199,0.578857,1.009415,-0.023926,-0.178714,-26.354077,-54.116177,18.85071
1784155983.7702,15:53:03.770,0,false,0.497383,-0.500977,0.417725,0.57196,0.975235,0.010742,-0.164065,-26.470176,-54.147758,19.089085
1784155983.8015,15:53:03.801,1,false,0.49938,-0.503906,0.41864,0.566956,0.964492,0.019043,-0.160159,-26.70925,-54.161226,19.288668
1784155983.8329,15:53:03.832,2,false,0.503445,-0.508301,0.419861,0.558472,0.947402,0.043946,-0.137209,-26.715063,-53.934087,19.37857
1784155983.8642,15:53:03.864,3,false,0.506467,-0.510925,0.420471,0.552856,0.963516,0.101076,-0.119631,-26.869832,-53.864246,19.519297
1784155983.8956,15:53:03.895,4,false,0.509466,-0.513245,0.421448,0.54718,0.965469,0.11133,-0.109377,-26.994171,-53.786435,19.630997
1784155983.9267,15:53:03.926,5,false,0.512303,-0.515747,0.424622,0.539673,0.988418,0.13135,-0.099123,-27.180846,-53.492097,19.731528
1784155983.9578,15:53:03.957,6,false,0.513362,-0.516296,0.428528,0.535034,0.985,0.136233,-0.089845,-27.199314,-53.376732,20.150989
1784155983.989,15:53:03.989,7,false,0.514,-0.516724,0.432617,0.530701,0.959121,0.141115,-0.071778,-27.485105,-53.198134,20.423828
1784155984.0201,15:53:04.020,8,false,0.51469,-0.516907,0.438171,0.525269,0.937148,0.133791,-0.053223,-27.682501,-53.097211,20.744152
1784155984.0513,15:53:04.051,9,false,0.515104,-0.516357,0.440735,0.523254,0.952285,0.138674,-0.064942,-28.009696,-53.111058,21.002536
1784155984.0824,15:53:04.082,10,false,0.515007,-0.514709,0.442627,0.523376,0.960098,0.142092,-0.07129,-28.229403,-53.063704,21.38462
1784155984.1136,15:53:04.113,11,false,0.514629,-0.514099,0.443054,0.523987,1.00795,0.073243,-0.09424,-28.352369,-53.125763,21.653727
1784155984.1449,15:53:04.144,12,false,0.512102,-0.512756,0.444641,0.526428,0.999161,0.028809,-0.082521,-28.537808,-53.181616,22.0006
1784155984.1762,15:53:04.176,13,false,0.508338,-0.512146,0.445313,0.53009,1.043107,-0.037598,-0.097658,-28.764519,-53.172068,22.193154
1784155984.2076,15:53:04.207,14,false,0.505832,-0.512085,0.444885,0.532898,1.045548,-0.038575,-0.092775,-28.789112,-53.298059,22.560853
1784155984.2389,15:53:04.238,15,false,0.501899,-0.513855,0.442078,0.537231,1.043595,-0.012696,-0.104005,-28.721523,-53.246959,22.622613
1784155984.2703,15:53:04.270,16,false,0.500387,-0.515076,0.440735,0.538574,0.996231,0.006348,-0.095216,-28.735462,-53.380416,22.708105
1784155984.3016,15:53:04.301,17,false,0.495944,-0.51947,0.436768,0.541687,1.000137,0.066407,-0.102052,-28.688192,-53.51548,22.740186
1784155984.3329,15:53:04.332,18,false,0.492419,-0.5224,0.434753,0.543701,1.005509,0.050294,-0.085939,-28.840049,-53.457592,22.948505
1784155984.3641,15:53:04.364,19,false,0.486594,-0.525452,0.43396,0.546631,0.977676,0.013184,-0.072267,-28.827181,-53.330723,23.135992
1784155984.3952,15:53:04.395,20,false,0.483333,-0.526489,0.43396,0.548523,0.98793,0.001465,-0.062501,-28.69597,-53.291311,23.259869
1784155984.4264,15:53:04.426,21,false,0.480707,-0.5271,0.434204,0.550049,1.002579,-0.019532,-0.064454,-28.712464,-53.240886,23.461082
1784155984.4575,15:53:04.457,22,false,0.477467,-0.528137,0.434814,0.551392,0.991348,-0.004395,-0.067872,-28.861894,-53.285226,23.522542
1784155984.4888,15:53:04.488,23,false,0.475979,-0.52887,0.434937,0.55188,0.998672,0.008301,-0.067872,-28.861796,-53.160641,23.562902
1784155984.5202,15:53:04.520,24,false,0.474585,-0.529602,0.435181,0.552185,0.988907,0.024414,-0.05713,-28.8318,-53.198052,23.554365
1784155984.5515,15:53:04.551,25,false,0.472976,-0.530334,0.43573,0.552429,0.981094,0.029297,-0.041993,-28.924435,-53.097137,23.636405
1784155984.5829,15:53:04.582,26,false,0.472031,-0.530518,0.435913,0.552917,0.980606,0.028321,-0.042969,-28.918083,-53.140899,23.620518
1784155984.6142,15:53:04.614,27,false,0.471004,-0.530334,0.435852,0.554016,0.99379,0.029786,-0.045411,-29.002089,-53.120469,23.695942
1784155984.6453,15:53:04.645,28,false,0.470823,-0.530212,0.43573,0.554382,0.987442,0.025879,-0.060548,-29.212279,-53.117036,23.718962
1784155984.6765,15:53:04.676,29,false,0.469834,-0.529907,0.435303,0.555847,0.994278,0.030274,-0.064454,-29.222004,-53.233576,23.769588
1784155984.7076,15:53:04.707,30,false,0.469097,-0.529785,0.434998,0.556824,0.984512,0.011719,-0.064454,-29.12608,-53.308556,23.695521
1784155984.7388,15:53:04.738,31,false,0.467698,-0.529724,0.434387,0.558533,0.995743,0.012818,-0.057618,-29.024794,-53.331175,23.718584
1784155984.7699,15:53:04.769,0,false,0.467245,-0.529358,0.434143,0.559448,0.998306,0.007935,-0.079591,-29.157944,-53.426302,23.769248
1784155984.801,15:53:04.801,1,false,0.466663,-0.529297,0.433899,0.560181,1.004166,-0.000855,-0.069825,-29.038518,-53.40724,23.874661
1784155984.8322,15:53:04.832,2,false,0.465778,-0.529724,0.433777,0.560608,0.995377,0.005982,-0.049317,-29.020758,-53.345222,23.80504
1784155984.8633,15:53:04.863,3,false,0.465049,-0.530334,0.433655,0.56073,0.999283,0.010864,-0.045899,-29.094496,-53.334267,23.832104
1784155984.8947,15:53:04.894,4,false,0.464196,-0.530701,0.433411,0.561279,0.988052,0.025025,-0.055665,-29.205723,-53.369269,23.781693
1784155984.926,15:53:04.926,5,false,0.463596,-0.530579,0.433411,0.56189,0.995865,0.007446,-0.064942,-29.186196,-53.400772,23.841
1784155984.9573,15:53:04.957,6,false,0.462743,-0.530762,0.433228,0.562561,0.999771,0.0177,-0.066407,-29.273298,-53.294539,23.670069
1784155984.9887,15:53:04.988,7,false,0.461286,-0.531372,0.432922,0.563416,0.993423,0.011353,-0.061036,-29.321783,-53.258745,23.635861
1784155985.02,15:53:05.020,8,false,0.460755,-0.531494,0.432861,0.563782,0.988052,0.007446,-0.060548,-29.215881,-53.301299,23.634982
1784155985.0514,15:53:05.051,9,false,0.46032,-0.531616,0.432617,0.564209,0.980728,-0.019409,-0.060548,-29.075707,-53.429322,23.51456
1784155985.0825,15:53:05.082,10,false,0.459752,-0.531738,0.432434,0.564697,0.995377,-0.012573,-0.070314,-29.114043,-53.484726,23.525811
1784155985.1136,15:53:05.113,11,false,0.45954,-0.531921,0.432434,0.564697,1.011978,-0.012085,-0.059571,-29.08873,-53.564498,23.595752
1784155985.1448,15:53:05.144,12,false,0.459582,-0.532959,0.432068,0.563965,1.001236,0.002564,-0.05127,-29.006133,-53.501708,23.494207
1784155985.1759,15:53:05.175,13,false,0.459483,-0.533386,0.431885,0.563782,0.987076,0.02063,-0.05127,-28.916842,-53.579782,23.432724
1784155985.2071,15:53:05.207,14,false,0.459441,-0.533813,0.431641,0.563599,0.99147,0.014282,-0.051759,-28.821526,-53.69491,23.526928
1784155985.2382,15:53:05.238,15,false,0.45927,-0.533752,0.43158,0.563843,0.990494,-0.006714,-0.058106,-28.76565,-53.723755,23.432265
1784155985.2695,15:53:05.269,16,false,0.459292,-0.532837,0.432129,0.56427,1.003189,0.007935,-0.065431,-28.685453,-53.674947,23.451745
1784155985.3009,15:53:05.300,17,false,0.458869,-0.532471,0.432312,0.564819,1.016373,0.000122,-0.066896,-28.762815,-53.526343,23.364601
1784155985.3322,15:53:05.332,18,false,0.458369,-0.532166,0.432739,0.565186,1.010513,0.013306,-0.071778,-28.83244,-53.31783,23.540386
1784155985.3636,15:53:05.363,19,false,0.457059,-0.532227,0.433411,0.565674,0.98854,-0.006226,-0.0542,-28.775472,-53.354477,23.489239
1784155985.3949,15:53:05.394,20,false,0.456035,-0.532532,0.433716,0.565979,0.993423,0.005982,-0.052247,-28.724201,-53.462227,23.293668
1784155985.4262,15:53:05.426,21,false,0.454728,-0.53302,0.433533,0.566711,0.993912,0.008423,-0.046387,-28.797687,-53.484434,23.192424
1784155985.4574,15:53:05.457,22,false,0.453072,-0.533081,0.433594,0.567932,1.006607,-0.009155,-0.058595,-28.80401,-53.564235,23.191027
1784155985.4885,15:53:05.488,23,false,0.451984,-0.532898,0.433594,0.56897,1.002701,-0.01062,-0.063966,-28.944285,-53.651009,23.204724
1784155985.5197,15:53:05.519,24,false,0.450441,-0.532837,0.43335,0.570435,1.003677,-0.016968,-0.06836,-28.846225,-53.654338,23.21705
1784155985.5508,15:53:05.550,25,false,0.45014,-0.532715,0.433411,0.57074,1.006607,-0.018921,-0.070802,-28.847694,-53.642379,23.317868
1784155985.582,15:53:05.582,26,false,0.449109,-0.532471,0.433655,0.571594,0.993912,-0.007691,-0.066407,-28.834062,-53.601709,23.288973
1784155985.6131,15:53:05.613,27,false,0.448562,-0.532471,0.433899,0.571838,1.006607,-0.018433,-0.063478,-28.986286,-53.624921,23.457367
1784155985.6444,15:53:05.644,28,false,0.447567,-0.532715,0.434143,0.572205,0.985611,-0.005737,-0.043458,-29.033564,-53.660765,23.339753
1784155985.6758,15:53:05.675,29,false,0.446757,-0.532837,0.434265,0.572632,0.987564,-0.018433,-0.049317,-29.016299,-53.603303,23.35353
1784155985.7071,15:53:05.707,30,false,0.446408,-0.532898,0.434387,0.572754,0.987076,-0.026734,-0.048341,-28.821314,-53.671217,23.410792
1784155985.7385,15:53:05.738,31,false,0.44547,-0.532959,0.434631,0.573242,0.995865,-0.029664,-0.0542,-28.795367,-53.792155,23.417466
1784155985.7698,15:53:05.769,0,false,0.445026,-0.533081,0.434937,0.573242,1.002213,-0.036011,-0.053712,-28.742106,-53.811276,23.513195
1784155985.8009,15:53:05.800,1,false,0.44437,-0.533447,0.434998,0.573364,0.985611,-0.030152,-0.045411,-28.679218,-53.888301,23.225506
1784155985.8321,15:53:05.832,2,false,0.443943,-0.533752,0.435059,0.573364,0.986099,-0.034546,-0.042969,-28.697387,-53.98753,23.190893
1784155985.8632,15:53:05.863,3,false,0.44384,-0.533936,0.435181,0.573181,0.995865,-0.020386,-0.046876,-28.683832,-53.97216,23.159742
1784155985.8944,15:53:05.894,4,false,0.443677,-0.534119,0.435364,0.572998,0.99733,-0.022339,-0.045411,-28.611817,-53.973281,23.146659
1784155985.9255,15:53:05.925,5,false,0.443663,-0.53418,0.435303,0.572998,0.996841,-0.03357,-0.046387,-28.457281,-54.108874,23.119931
1784155985.9566,15:53:05.956,6,false,0.443595,-0.534302,0.435303,0.572937,1.000748,-0.026734,-0.042481,-28.497644,-54.260816,23.095876
1784155985.9878,15:53:05.987,7,false,0.44378,-0.53418,0.435425,0.572815,0.991958,-0.025269,-0.060548,-28.533971,-54.322794,23.178903
1784155986.0191,15:53:06.019,8,false,0.443704,-0.53418,0.435181,0.573059,0.999771,-0.017456,-0.059083,-28.581619,-54.288851,23.223719
1784155986.0505,15:53:06.050,9,false,0.443666,-0.53418,0.435059,0.573181,1.014908,-0.017456,-0.060548,-28.579641,-54.318118,23.353777
1784155986.0818,15:53:06.081,10,false,0.443435,-0.534241,0.435059,0.573303,0.99733,-0.013062,-0.053223,-28.667584,-54.404274,23.321291
1784155986.1131,15:53:06.113,11,false,0.443476,-0.534058,0.435242,0.573303,0.995865,-0.015991,-0.050782,-28.612148,-54.34723,23.486454
1784155986.1445,15:53:06.144,12,false,0.443304,-0.534119,0.435181,0.573425,0.997818,-0.031617,-0.049805,-28.69684,-54.236074,23.4407
1784155986.1756,15:53:06.175,13,false,0.442726,-0.534485,0.434998,0.573669,0.999283,-0.026734,-0.052735,-28.683339,-54.19585,23.414475
1784155986.2068,15:53:06.206,14,false,0.442712,-0.534546,0.434937,0.573669,0.986587,-0.024292,-0.052247,-28.626328,-54.204509,23.390873
1784155986.2379,15:53:06.237,15,false,0.442783,-0.534668,0.434875,0.573547,0.99147,-0.021363,-0.052735,-28.694648,-54.212303,23.399539
1784155986.269,15:53:06.269,16,false,0.442769,-0.534729,0.434814,0.573547,0.993423,-0.022339,-0.047364,-28.57669,-54.413717,23.362477
1784155986.3002,15:53:06.300,17,false,0.442816,-0.534607,0.434998,0.573486,0.984634,-0.025757,-0.056153,-28.575205,-54.40059,23.373982
1784155986.3313,15:53:06.331,18,false,0.443048,-0.534546,0.434998,0.573364,0.995865,-0.018433,-0.047364,-28.678545,-54.493452,23.533875
1784155986.3625,15:53:06.362,19,false,0.443314,-0.534607,0.43457,0.573425,1.01149,-0.028687,-0.056153,-28.636966,-54.442444,23.40861
1784155986.3938,15:53:06.393,20,false,0.443128,-0.534912,0.434143,0.573608,1.003677,-0.031617,-0.066407,-28.554684,-54.531121,23.385595
1784155986.4251,15:53:06.425,21,false,0.44331,-0.534973,0.434204,0.573364,0.993912,-0.03357,-0.053712,-28.630169,-54.536161,23.43965
1784155986.4565,15:53:06.456,22,false,0.443002,-0.535278,0.434143,0.573364,0.997818,-0.009644,-0.043946,-28.503705,-54.465927,23.338761
1784155986.4878,15:53:06.487,23,false,0.442881,-0.535461,0.43396,0.573425,0.993912,-0.03357,-0.050294,-28.509518,-54.477487,23.292823
1784155986.5192,15:53:06.519,24,false,0.442515,-0.535583,0.434021,0.573547,0.979751,-0.02771,-0.050294,-28.484842,-54.353306,23.116894
1784155986.5505,15:53:06.550,25,false,0.442389,-0.535706,0.433838,0.573669,0.999283,-0.01355,-0.050294,-28.462634,-54.241543,23.212773
1784155986.5818,15:53:06.581,26,false,0.4422,-0.535828,0.43396,0.573608,1.005142,-0.009644,-0.037598,-28.562277,-54.185818,23.149525
1784155986.6132,15:53:06.613,27,false,0.441913,-0.53595,0.434021,0.573669,0.99733,-0.042359,-0.047852,-28.35288,-54.240342,23.137465
1784155986.6443,15:53:06.644,28,false,0.441719,-0.536011,0.434143,0.573669,0.997818,-0.031617,-0.049805,-28.254145,-54.27446,23.141564
1784155986.6757,15:53:06.675,29,false,0.441772,-0.53595,0.434326,0.573547,1.000748,-0.020386,-0.048341,-28.255006,-54.140674,23.264883
1784155986.7068,15:53:06.706,30,false,0.44187,-0.53595,0.434387,0.573425,0.990982,-0.01062,-0.047852,-28.330551,-54.169805,23.271194
1784155986.7379,15:53:06.737,31,false,0.441982,-0.535889,0.434509,0.573303,1.009537,-0.021851,-0.038087,-28.353679,-54.210976,23.396505
1784155986.7693,15:53:06.769,0,false,0.442062,-0.535889,0.434509,0.573242,0.992447,-0.016968,-0.039551,-28.329634,-54.218123,23.3747
1784155986.8006,15:53:06.800,1,false,0.441954,-0.536011,0.434387,0.573303,0.996353,-0.01062,-0.063478,-28.322946,-54.16474,23.340121
1784155986.832,15:53:06.832,2,false,0.442209,-0.535767,0.434509,0.573242,0.998306,-0.025757,-0.046876,-28.421605,-54.206418,23.398724
1784155986.8633,15:53:06.863,3,false,0.442303,-0.535706,0.43457,0.573181,1.007584,-0.021363,-0.047852,-28.315997,-54.09439,23.556143
1784155986.8947,15:53:06.894,4,false,0.442461,-0.535706,0.43457,0.573059,0.994888,-0.024781,-0.052735,-28.22095,-54.143103,23.593143
1784155986.9258,15:53:06.925,5,false,0.44248,-0.535706,0.434631,0.572998,0.993423,-0.036988,-0.049317,-28.299901,-54.12713,23.596536
1784155986.9569,15:53:06.956,6,false,0.442387,-0.535767,0.43457,0.573059,0.986099,-0.024292,-0.042481,-28.341048,-54.187523,23.569682
1784155986.9881,15:53:06.988,7,false,0.442387,-0.535767,0.43457,0.573059,0.97731,-0.022339,-0.042481,-28.288358,-54.197015,23.530559
1784155987.0192,15:53:07.019,8,false,0.442447,-0.535767,0.434509,0.573059,0.998306,-0.026734,-0.058106,-28.360567,-54.17565,23.614979
1784155987.0504,15:53:07.050,9,false,0.442408,-0.535767,0.434387,0.573181,0.996841,-0.023804,-0.053712,-28.186294,-54.11156,23.601234
1784155987.0815,15:53:07.081,10,false,0.442468,-0.535767,0.434326,0.573181,0.999771,-0.021363,-0.0542,-28.164033,-54.17351,23.544003
1784155987.1126,15:53:07.112,11,false,0.442482,-0.535706,0.434387,0.573181,0.999283,-0.016968,-0.044434,-28.218768,-54.229265,23.492494
1784155987.144,15:53:07.144,12,false,0.442301,-0.535889,0.434265,0.573242,1.002701,-0.01648,-0.055177,-28.193259,-54.174768,23.371367
1784155987.1753,15:53:07.175,13,false,0.44266,-0.535706,0.434448,0.572998,0.996841,-0.03064,-0.050294,-28.31984,-54.155628,23.471706
1784155987.2067,15:53:07.206,14,false,0.442739,-0.535706,0.434448,0.572937,0.997818,-0.025269,-0.049805,-28.418809,-54.198217,23.472289
1784155987.238,15:53:07.238,15,false,0.442739,-0.535706,0.434448,0.572937,1.000748,-0.01062,-0.06006,-28.537789,-54.311317,23.472813
1784155987.2693,15:53:07.269,16,false,0.442905,-0.535583,0.434509,0.572876,1.002213,-0.025269,-0.048829,-28.570101,-54.368245,23.518146
1784155987.3005,15:53:07.300,17,false,0.443124,-0.5354,0.434753,0.572693,0.995377,-0.020386,-0.050294,-28.599182,-54.240034,23.514085
1784155987.3316,15:53:07.331,18,false,0.443198,-0.535339,0.434753,0.572693,1.001236,-0.01648,-0.050294,-28.744986,-54.199414,23.555291
1784155987.3628,15:53:07.362,19,false,0.443336,-0.535339,0.434692,0.572632,1.004654,-0.005249,-0.048341,-28.831348,-54.207717,23.547515
1784155987.3939,15:53:07.393,20,false,0.443295,-0.535339,0.434814,0.572571,1.002701,-0.03064,-0.043458,-28.968889,-54.155374,23.600332
1784155987.425,15:53:07.425,21,false,0.443088,-0.535461,0.434875,0.572571,0.990982,-0.020874,-0.044923,-28.748738,-54.257804,23.603006
1784155987.4562,15:53:07.456,22,false,0.44326,-0.5354,0.434937,0.572449,1.000259,-0.006226,-0.047852,-28.77491,-54.275222,23.680181
1784155987.4873,15:53:07.487,23,false,0.443246,-0.535461,0.434875,0.572449,1.004166,-0.012085,-0.042481,-28.693787,-54.066591,23.67487
1784155987.5185,15:53:07.518,24,false,0.443246,-0.535461,0.434875,0.572449,0.998306,-0.017456,-0.056153,-28.7105,-54.088176,23.729905
1784155987.5498,15:53:07.549,25,false,0.443384,-0.535461,0.434814,0.572388,1.006607,-0.027222,-0.050782,-28.815264,-54.077695,23.719622
1784155987.5811,15:53:07.581,26,false,0.443199,-0.535583,0.434692,0.57251,0.997818,-0.011109,-0.048829,-28.685245,-54.038355,23.710367
1784155987.6125,15:53:07.612,27,false,0.443204,-0.535645,0.434692,0.572449,0.99733,-0.023804,-0.041016,-28.747673,-53.943133,23.627268
1784155987.6438,15:53:07.643,28,false,0.443449,-0.535522,0.434753,0.572327,0.994888,-0.006714,-0.049317,-28.773951,-53.917249,23.672109
1784155987.6752,15:53:07.675,29,false,0.4432,-0.535828,0.434631,0.572327,1.011002,-0.008667,-0.046876,-28.633109,-53.983676,23.652652
1784155987.7063,15:53:07.706,30,false,0.442992,-0.536133,0.434387,0.572388,0.995865,-0.021851,-0.04004,-28.715705,-53.953737,23.545416
1784155987.7374,15:53:07.737,31,false,0.443104,-0.536072,0.434509,0.572266,0.986587,-0.019409,-0.047852,-28.715272,-54.03147,23.70312
1784155987.7686,15:53:07.768,0,false,0.443488,-0.535767,0.434814,0.572021,0.993912,-0.01355,-0.041016,-28.789651,-54.14629,23.740377
1784155987.7997,15:53:07.799,1,false,0.443679,-0.535706,0.434937,0.571838,1.003677,-0.019898,-0.042481,-28.76687,-54.115044,23.818769
1784155987.8309,15:53:07.830,2,false,0.443586,-0.535767,0.434875,0.571899,0.991958,-0.026246,-0.049805,-28.716459,-54.071969,23.694922
1784155987.862,15:53:07.862,3,false,0.443804,-0.535583,0.43512,0.571716,1.000259,-0.021851,-0.050294,-28.700997,-54.122924,23.643275
1784155987.8933,15:53:07.893,4,false,0.443882,-0.535583,0.43512,0.571655,1.000259,-0.015015,-0.047852,-28.657173,-54.15383,23.791193
1784155987.9247,15:53:07.924,5,false,0.4441,-0.5354,0.435364,0.571472,0.986587,-0.028687,-0.043946,-28.737363,-54.136784,23.714965
1784155987.956,15:53:07.956,6,false,0.4441,-0.5354,0.435364,0.571472,0.991958,-0.012573,-0.051759,-28.824487,-54.15135,23.736084
1784155987.9874,15:53:07.987,7,false,0.44404,-0.5354,0.435425,0.571472,0.999283,-0.017945,-0.049317,-28.82813,-54.194367,23.710228
1784155988.0187,15:53:08.018,8,false,0.444164,-0.535278,0.435608,0.57135,0.995865,-0.023804,-0.050294,-28.891223,-54.248036,23.701912
1784155988.05,15:53:08.050,9,false,0.444243,-0.535278,0.435608,0.571289,0.997818,-0.026246,-0.053712,-28.828377,-54.371108,23.694428
1784155988.0812,15:53:08.081,10,false,0.444256,-0.535217,0.435669,0.571289,1.002701,-0.01062,-0.045411,-28.697046,-54.481872,23.583015
1784155988.1123,15:53:08.112,11,false,0.443822,-0.535583,0.435181,0.571655,1.003677,-0.026734,-0.049317,-28.758295,-54.461929,23.512652
1784155988.1435,15:53:08.143,12,false,0.443749,-0.535645,0.435181,0.571655,0.997818,-0.02771,-0.040528,-28.843326,-54.399119,23.554001
1784155988.1746,15:53:08.174,13,false,0.444045,-0.535461,0.435425,0.571411,0.993912,-0.024781,-0.0542,-28.815177,-54.522036,23.621123
1784155988.2058,15:53:08.205,14,false,0.44428,-0.535278,0.43573,0.571167,0.995377,-0.023316,-0.041993,-28.804797,-54.513031,23.741349
1784155988.2369,15:53:08.236,15,false,0.444297,-0.535034,0.435852,0.571289,0.996353,-0.031128,-0.043458,-28.675824,-54.385296,23.700013
1784155988.268,15:53:08.268,16,false,0.444205,-0.535095,0.435791,0.57135,0.993423,-0.018433,-0.042481,-28.544795,-54.434826,23.573088
1784155988.2994,15:53:08.299,17,false,0.444113,-0.535156,0.43573,0.571411,0.993912,-0.018921,-0.067384,-28.576406,-54.479403,23.503717
1784155988.3307,15:53:08.330,18,false,0.443978,-0.535339,0.435242,0.571716,0.996353,-0.020874,-0.048341,-28.619811,-54.4298,23.516052
1784155988.3621,15:53:08.362,19,false,0.444093,-0.535278,0.43512,0.571777,0.998795,-0.013062,-0.062501,-28.554198,-54.430018,23.422477
1784155988.3934,15:53:08.393,20,false,0.443559,-0.535522,0.435364,0.571777,1.001724,-0.037476,-0.049805,-28.554962,-54.340491,23.398075
1784155988.4247,15:53:08.424,21,false,0.443374,-0.535645,0.435242,0.571899,0.983169,-0.029664,-0.047364,-28.600511,-54.379548,23.256482
1784155988.4559,15:53:08.455,22,false,0.443568,-0.5354,0.435425,0.571838,0.997818,-0.01355,-0.056153,-28.536828,-54.414699,23.36831
1784155988.4872,15:53:08.487,23,false,0.443734,-0.535278,0.435486,0.571777,1.003189,-0.022827,-0.052735,-28.584191,-54.371566,23.439047
1784155988.5185,15:53:08.518,24,false,0.443376,-0.535522,0.435791,0.571594,0.9944,-0.023804,-0.049805,-28.626817,-54.332746,23.398034
1784155988.5496,15:53:08.549,25,false,0.443505,-0.535461,0.435974,0.571411,0.984634,-0.029175,-0.035157,-28.620319,-54.252947,23.376076
1784155988.5807,15:53:08.580,26,false,0.443746,-0.535339,0.436279,0.571106,0.997818,-0.025757,-0.048341,-28.569609,-54.211035,23.490899
1784155988.6119,15:53:08.611,27,false,0.443908,-0.5354,0.436279,0.570923,0.991958,-0.022827,-0.048341,-28.568832,-54.173315,23.429746
1784155988.643,15:53:08.643,28,false,0.444005,-0.5354,0.43634,0.570801,0.985611,-0.017945,-0.044923,-28.59804,-54.184228,23.479386
1784155988.6744,15:53:08.674,29,false,0.443844,-0.535583,0.436279,0.570801,0.992447,-0.008667,-0.042969,-28.639282,-54.238911,23.464247
1784155988.7057,15:53:08.705,30,false,0.443908,-0.535645,0.436218,0.57074,1.003677,-0.019898,-0.041993,-28.571722,-54.138587,23.345945
1784155988.737,15:53:08.737,31,false,0.444001,-0.535583,0.436279,0.570679,0.987076,-0.03064,-0.044923,-28.495964,-54.152973,23.433873
1784155988.7684,15:53:08.768,0,false,0.444185,-0.535461,0.436401,0.570557,0.995377,-0.024292,-0.044434,-28.45769,-54.121059,23.378423
1784155988.7997,15:53:08.799,1,false,0.444014,-0.535522,0.43634,0.570679,0.995377,-0.03357,-0.058106,-28.617643,-54.062428,23.433195
1784155988.8309,15:53:08.830,2,false,0.444207,-0.535278,0.436523,0.570618,0.996841,-0.015503,-0.046876,-28.716739,-54.144245,23.542306
1784155988.862,15:53:08.862,3,false,0.444193,-0.535339,0.436462,0.570618,0.995377,-0.014038,-0.041505,-28.62648,-54.158065,23.505921
1784155988.8931,15:53:08.893,4,false,0.444106,-0.535461,0.436401,0.570618,0.998795,-0.021363,-0.038575,-28.739646,-54.006011,23.488128
1784155988.9243,15:53:08.924,5,false,0.444001,-0.535583,0.436279,0.570679,0.987564,-0.020386,-0.045899,-28.677004,-53.809346,23.457161
1784155988.9554,15:53:08.955,6,false,0.444042,-0.535583,0.436157,0.57074,1.008072,-0.028687,-0.045899,-28.620626,-53.886564,23.399382
1784155988.9866,15:53:08.986,7,false,0.444079,-0.535522,0.436035,0.570862,0.998795,-0.016968,-0.062989,-28.584839,-53.791567,23.362336
1784155989.0177,15:53:09.017,8,false,0.444281,-0.535522,0.435669,0.570984,1.013443,-0.016968,-0.05713,-28.732077,-53.870563,23.31404
1784155989.049,15:53:09.049,9,false,0.444802,-0.535461,0.435852,0.570496,1.009049,-0.015015,-0.045411,-28.715053,-53.971566,23.405158
1784155989.0804,15:53:09.080,10,false,0.444867,-0.535522,0.435791,0.570435,0.989029,-0.01648,-0.056641,-28.669824,-53.86807,23.54698
1784155989.1117,15:53:09.111,11,false,0.444522,-0.535828,0.435608,0.570557,0.987564,-0.022339,-0.040528,-28.688933,-53.939415,23.48022
1784155989.1431,15:53:09.143,12,false,0.444563,-0.535828,0.435486,0.570618,0.988052,-0.026246,-0.055177,-28.7809,-53.824179,23.450043
1784155989.1744,15:53:09.174,13,false,0.444604,-0.535583,0.435425,0.570862,0.996353,-0.027222,-0.050294,-28.729086,-53.88496,23.587377
1784155989.2057,15:53:09.205,14,false,0.444778,-0.535339,0.435547,0.570862,0.999771,-0.015503,-0.050782,-28.742269,-53.984524,23.516577
1784155989.2371,15:53:09.237,15,false,0.444833,-0.535278,0.435486,0.570923,0.998306,-0.03064,-0.052247,-28.948534,-54.044223,23.587441
1784155989.2684,15:53:09.268,16,false,0.444782,-0.535339,0.435303,0.571045,1.003189,-0.020874,-0.05127,-28.850049,-54.00823,23.486727
1784155989.2996,15:53:09.299,17,false,0.444704,-0.535339,0.435303,0.571106,0.997818,-0.020874,-0.053223,-28.79132,-53.871159,23.500761
1784155989.3307,15:53:09.330,18,false,0.44456,-0.535461,0.435059,0.571289,1.000259,-0.019409,-0.055177,-28.932864,-53.807611,23.483485
1784155989.3618,15:53:09.361,19,false,0.44433,-0.535522,0.435059,0.571411,1.002213,-0.017945,-0.05127,-28.8509,-53.705556,23.482889
1784155989.393,15:53:09.393,20,false,0.444449,-0.535522,0.434937,0.571411,1.004654,-0.017456,-0.05127,-28.702363,-53.763245,23.347769
1784155989.4243,15:53:09.424,21,false,0.444265,-0.535645,0.434814,0.571533,0.995865,-0.014038,-0.063478,-28.718218,-53.815165,23.360745
1784155989.4557,15:53:09.455,22,false,0.444385,-0.535461,0.434998,0.571472,1.005142,-0.013062,-0.056153,-28.792303,-53.981523,23.282701
1784155989.487,15:53:09.487,23,false,0.444357,-0.535583,0.434875,0.571472,0.994888,-0.013062,-0.050294,-28.78421,-54.056477,23.212461
1784155989.5184,15:53:09.518,24,false,0.444141,-0.535828,0.434875,0.571411,1.000259,-0.012573,-0.043946,-28.642342,-54.034212,23.283829
1784155989.5497,15:53:09.549,25,false,0.443749,-0.536072,0.434814,0.571533,0.992447,-0.016968,-0.042969,-28.78383,-54.268389,23.273292
1784155989.581,15:53:09.581,26,false,0.443342,-0.536377,0.434692,0.571655,0.989029,-0.011109,-0.042481,-28.716769,-54.150164,23.263808
1784155989.6124,15:53:09.612,27,false,0.443547,-0.536255,0.434875,0.571472,1.006119,-0.026734,-0.044434,-28.52183,-54.208254,23.419765
1784155989.6435,15:53:09.643,28,false,0.443704,-0.536072,0.435181,0.571289,0.999771,-0.024292,-0.048341,-28.480969,-54.215673,23.500311
1784155989.6747,15:53:09.674,29,false,0.443797,-0.536011,0.435242,0.571228,0.998306,-0.023316,-0.043946,-28.489056,-54.327027,23.393356
1784155989.7058,15:53:09.705,30,false,0.443848,-0.53595,0.435425,0.571106,0.995377,-0.024781,-0.036622,-28.466426,-54.292661,23.596173
1784155989.7369,15:53:09.736,31,false,0.443557,-0.536194,0.435181,0.571289,1.006607,-0.019409,-0.042969,-28.64046,-54.306593,23.464678
1784155989.7681,15:53:09.768,0,false,0.443265,-0.536438,0.434937,0.571472,0.997818,-0.026246,-0.047364,-28.812044,-54.259317,23.465964
1784155989.7994,15:53:09.799,1,false,0.443173,-0.536499,0.434875,0.571533,0.986587,-0.032105,-0.047852,-28.816931,-54.261629,23.437213
1784155989.8308,15:53:09.830,2,false,0.443187,-0.536438,0.434937,0.571533,0.999771,-0.031617,-0.041993,-28.806375,-54.353434,23.530968
1784155989.8621,15:53:09.862,3,false,0.443293,-0.536316,0.435059,0.571472,1.007584,-0.016968,-0.053223,-28.826783,-54.241658,23.540578
1784155989.8934,15:53:09.893,4,false,0.443173,-0.536499,0.434875,0.571533,0.987076,-0.020386,-0.054688,-28.919919,-54.081245,23.519319
1784155989.9248,15:53:09.924,5,false,0.442982,-0.53656,0.434753,0.571716,0.9944,-0.021363,-0.049317,-28.928972,-54.191088,23.425417
1784155989.9559,15:53:09.955,6,false,0.443121,-0.53656,0.434692,0.571655,0.999771,-0.012085,-0.053223,-28.996936,-54.230131,23.654936
1784155989.9871,15:53:09.987,7,false,0.443325,-0.536438,0.434875,0.571472,1.00856,-0.014527,-0.03711,-28.908564,-54.235362,23.607288
1784155990.0182,15:53:10.018,8,false,0.443325,-0.536438,0.434875,0.571472,1.000259,-0.01355,-0.054688,-28.978568,-54.195209,23.743851
1784155990.0493,15:53:10.049,9,false,0.443339,-0.536377,0.434937,0.571472,0.996841,-0.026734,-0.047364,-28.892034,-54.203933,23.687311
1784155990.0805,15:53:10.080,10,false,0.443242,-0.536377,0.434875,0.571594,0.992935,-0.028687,-0.053712,-28.933783,-54.092153,23.711195
1784155990.1116,15:53:10.111,11,false,0.443297,-0.536316,0.434814,0.571655,0.995377,-0.028199,-0.053712,-28.971358,-54.066321,23.628013
1784155990.143,15:53:10.143,12,false,0.442999,-0.536499,0.43457,0.571899,1.002701,-0.019409,-0.046387,-29.079944,-53.968302,23.508288
1784155990.1743,15:53:10.174,13,false,0.443073,-0.536438,0.43457,0.571899,0.993912,-0.025269,-0.047364,-29.043087,-54.119347,23.594935
1784155990.2056,15:53:10.205,14,false,0.443111,-0.536438,0.434692,0.571777,0.993423,-0.013062,-0.056153,-28.965055,-54.075842,23.568241
1784155990.237,15:53:10.237,15,false,0.443204,-0.536377,0.434753,0.571716,1.005142,-0.014038,-0.045899,-28.969594,-54.141363,23.469447
1784155990.2683,15:53:10.268,16,false,0.443078,-0.536499,0.43457,0.571838,0.995865,-0.024781,-0.05127,-28.928819,-54.260148,23.470255
1784155990.2997,15:53:10.299,17,false,0.443111,-0.536438,0.434692,0.571777,1.002213,-0.017945,-0.036133,-28.96689,-54.367055,23.441075
1784155990.3308,15:53:10.330,18,false,0.442985,-0.53656,0.434509,0.571899,0.989029,-0.015991,-0.048829,-28.896477,-54.328686,23.354998
1784155990.3619,15:53:10.361,19,false,0.442752,-0.536804,0.434204,0.572083,0.999283,-0.015991,-0.056153,-28.833105,-54.339016,23.382205
1784155990.3933,15:53:10.393,20,false,0.442812,-0.536804,0.434143,0.572083,0.992935,-0.018921,-0.053712,-28.955517,-54.438036,23.287061
1784155990.4244,15:53:10.424,21,false,0.442825,-0.536926,0.433899,0.572144,0.995377,-0.020874,-0.050782,-28.781564,-54.542107,23.321062
1784155990.4556,15:53:10.455,22,false,0.442732,-0.536987,0.433838,0.572205,0.994888,-0.028687,-0.047852,-28.939038,-54.575956,23.336709
1784155990.4867,15:53:10.486,23,false,0.442884,-0.536926,0.433838,0.572144,0.998795,-0.025269,-0.05127,-28.87141,-54.412021,23.261068
1784155990.5178,15:53:10.517,24,false,0.442698,-0.537048,0.433716,0.572266,0.9944,-0.019409,-0.038575,-28.780637,-54.264478,23.26776
1784155990.5492,15:53:10.549,25,false,0.442784,-0.537109,0.433472,0.572327,0.995377,-0.017945,-0.055665,-28.84848,-54.161598,23.139199
1784155990.5805,15:53:10.580,26,false,0.443968,-0.536621,0.43335,0.57196,0.992447,-0.015503,-0.061036,-28.849724,-54.233498,23.322571
1784155990.6119,15:53:10.611,27,false,0.444225,-0.536621,0.433167,0.571899,1.009049,-0.017456,-0.056641,-28.76112,-54.402885,23.323113
1784155990.6432,15:53:10.643,28,false,0.444456,-0.53656,0.433167,0.571777,1.003677,-0.015991,-0.056641,-28.756145,-54.405795,23.248832
1784155990.6745,15:53:10.674,29,false,0.444807,-0.53656,0.433289,0.571411,0.999283,-0.025269,-0.049805,-28.766622,-54.423367,23.241794
1784155990.7059,15:53:10.705,30,false,0.4449,-0.536499,0.43335,0.57135,1.002213,-0.011597,-0.048341,-28.761098,-54.454137,23.145737
1784155990.7372,15:53:10.737,31,false,0.444853,-0.536621,0.433167,0.571411,0.995865,-0.000855,-0.051759,-28.711264,-54.302383,23.163962
1784155990.7684,15:53:10.768,0,false,0.444686,-0.536743,0.433105,0.571472,1.000259,-0.01062,-0.052735,-28.696321,-54.180758,23.090642
1784155990.7995,15:53:10.799,1,false,0.444867,-0.53656,0.433228,0.571411,0.995377,-0.021851,-0.053712,-28.757642,-54.190927,23.024654
1784155990.8306,15:53:10.830,2,false,0.444717,-0.536621,0.432983,0.571655,0.995377,-0.022339,-0.055665,-28.812831,-54.155217,23.114804
1784155990.8618,15:53:10.861,3,false,0.444917,-0.536438,0.433167,0.571533,0.999283,-0.012573,-0.054688,-28.757824,-54.108125,23.106215
1784155990.8929,15:53:10.892,4,false,0.445009,-0.536377,0.433228,0.571472,0.996841,-0.016968,-0.0542,-28.827948,-54.245187,23.128393
1784155990.9243,15:53:10.924,5,false,0.445009,-0.536377,0.433228,0.571472,0.982681,-0.014527,-0.041993,-28.876106,-54.204051,23.267983
1784155990.9556,15:53:10.955,6,false,0.445261,-0.536316,0.433044,0.571472,0.987076,-0.008667,-0.050294,-28.96431,-54.226845,23.303892
1784155990.987,15:53:10.987,7,false,0.445353,-0.536255,0.433105,0.571411,1.003677,-0.011597,-0.064942,-28.998832,-54.411851,23.216579
1784155991.0183,15:53:11.018,8,false,0.445168,-0.536377,0.432983,0.571533,1.005631,-0.022827,-0.056153,-28.955132,-54.324141,23.063228
1784155991.0496,15:53:11.049,9,false,0.4449,-0.536499,0.43335,0.57135,0.987076,-0.021363,-0.030762,-28.915803,-54.349879,23.14952
1784155991.081,15:53:11.081,10,false,0.444805,-0.53656,0.433533,0.571228,0.982681,-0.015503,-0.035645,-28.835545,-54.268366,23.227183
1784155991.1123,15:53:11.112,11,false,0.445215,-0.536316,0.433655,0.571045,0.985122,-0.010132,-0.056153,-28.897897,-54.239866,23.386802
1784155991.1435,15:53:11.143,12,false,0.445886,-0.536133,0.433594,0.57074,0.996353,-0.020874,-0.051759,-28.894199,-54.30394,23.365967
1784155991.1746,15:53:11.174,13,false,0.446423,-0.536011,0.433594,0.570435,1.002213,-0.01062,-0.050782,-28.935732,-54.227021,23.421985
1784155991.2057,15:53:11.205,14,false,0.447499,-0.535583,0.433655,0.569946,1.008072,-0.004761,-0.063478,-28.913296,-54.247517,23.412586
1784155991.2369,15:53:11.236,15,false,0.447932,-0.5354,0.433594,0.569824,1.009049,-0.002808,-0.049805,-28.95292,-54.25101,23.49385
1784155991.268,15:53:11.268,16,false,0.448001,-0.535522,0.433533,0.569702,1.004654,-0.005737,-0.047852,-28.883904,-54.269107,23.581941
1784155991.2992,15:53:11.299,17,false,0.44796,-0.535522,0.433655,0.569641,0.978775,-0.020874,-0.043458,-28.851697,-54.449887,23.676177
1784155991.3305,15:53:11.330,18,false,0.447782,-0.535461,0.433594,0.569885,0.9944,-0.018921,-0.049805,-28.822711,-54.313512,23.626404
1784155991.3618,15:53:11.361,19,false,0.447758,-0.5354,0.433533,0.570007,0.99147,-0.023804,-0.058106,-28.871393,-54.265544,23.611517
1784155991.3932,15:53:11.393,20,false,0.447744,-0.535461,0.433472,0.570007,0.999771,-0.002319,-0.045411,-28.720807,-54.222372,23.598119
1784155991.4245,15:53:11.424,21,false,0.44794,-0.535461,0.43335,0.569946,0.999771,-0.015015,-0.055665,-28.82454,-54.198472,23.541198
1784155991.4557,15:53:11.455,22,false,0.448432,-0.535278,0.433228,0.569824,0.993423,-0.011597,-0.052735,-28.873039,-54.162008,23.534832
1784155991.4868,15:53:11.486,23,false,0.449151,-0.535034,0.433105,0.56958,1.005631,0.00354,-0.055665,-28.722288,-54.233867,23.424425
1784155991.5179,15:53:11.517,24,false,0.44932,-0.534973,0.433167,0.569458,0.993423,-0.015015,-0.057618,-28.781012,-54.238724,23.534412
1784155991.5491,15:53:11.549,25,false,0.449338,-0.534973,0.433228,0.569397,0.991958,-0.008179,-0.048341,-28.878726,-54.078604,23.51377
1784155991.5802,15:53:11.580,26,false,0.44927,-0.534851,0.433289,0.569519,0.986099,-0.01355,-0.063966,-28.637683,-53.994311,23.5251
1784155991.6114,15:53:11.611,27,false,0.449397,-0.534729,0.433228,0.56958,0.992447,-0.016968,-0.05127,-28.420745,-53.918448,23.580159
1784155991.6425,15:53:11.642,28,false,0.449483,-0.534607,0.433289,0.56958,1.003189,-0.010132,-0.061036,-28.434854,-53.954847,23.614757
1784155991.6738,15:53:11.673,29,false,0.449464,-0.534607,0.433228,0.569641,0.989029,-0.008667,-0.056153,-28.552229,-54.017515,23.601035
1784155991.7052,15:53:11.705,30,false,0.449472,-0.534668,0.432983,0.569763,0.999771,-0.01355,-0.06006,-28.55319,-54.044008,23.528869
1784155991.7365,15:53:11.736,31,false,0.449253,-0.53479,0.432739,0.570007,0.990494,-0.007691,-0.062989,-28.628824,-54.127667,23.523735
1784155991.7679,15:53:11.767,0,false,0.449298,-0.534851,0.432617,0.570007,0.991958,-0.005249,-0.058106,-28.801571,-54.143145,23.593884
1784155991.7992,15:53:11.799,1,false,0.449384,-0.534729,0.432678,0.570007,1.003677,-0.018433,-0.048829,-28.702829,-54.112213,23.62711
1784155991.8305,15:53:11.830,2,false,0.449475,-0.534668,0.432739,0.569946,1.002213,-0.011597,-0.061524,-28.80836,-54.099329,23.671968
1784155991.8619,15:53:11.861,3,false,0.449175,-0.534546,0.4328,0.570251,0.998795,-0.011109,-0.051759,-28.873431,-54.057825,23.63757
1784155991.893,15:53:11.893,4,false,0.44879,-0.534851,0.432983,0.570129,1.014908,-0.003296,-0.046387,-28.872179,-54.005518,23.591659
1784155991.9242,15:53:11.924,5,false,0.447948,-0.535522,0.433105,0.570068,0.983658,-0.018921,-0.04004,-28.930868,-54.122933,23.490523
1784155991.9553,15:53:11.955,6,false,0.448004,-0.535522,0.433289,0.569885,0.990494,-0.024781,-0.043946,-28.893965,-54.168792,23.354639
1784155991.9864,15:53:11.986,7,false,0.448077,-0.535461,0.433289,0.569885,1.011002,-0.019409,-0.033204,-28.860752,-54.105388,23.307113
1784155992.0176,15:53:12.017,8,false,0.448595,-0.535095,0.433044,0.570007,0.997818,-0.002808,-0.05127,-28.845815,-54.138048,23.234432
1784155992.0487,15:53:12.048,9,false,0.448858,-0.534973,0.432922,0.570007,0.987076,-0.006226,-0.058106,-28.757601,-54.167441,23.318557
1784155992.0801,15:53:12.080,10,false,0.448957,-0.534973,0.432739,0.570068,0.990494,-0.000855,-0.061036,-28.887563,-54.208849,23.229777
1784155992.1114,15:53:12.111,11,false,0.449002,-0.53479,0.432678,0.570251,1.001724,-0.020386,-0.066407,-28.944714,-54.156393,23.314368
1784155992.1427,15:53:12.142,12,false,0.448905,-0.53479,0.432617,0.570374,0.986587,-0.024781,-0.060548,-28.951288,-54.183952,23.211054
1784155992.1741,15:53:12.174,13,false,0.448584,-0.535095,0.432251,0.570618,0.985122,-0.012085,-0.0542,-29.031973,-54.133986,23.19284
1784155992.2054,15:53:12.205,14,false,0.448584,-0.535095,0.432251,0.570618,0.989517,-0.024292,-0.069825,-28.98496,-54.10397,23.191401
1784155992.2368,15:53:12.236,15,false,0.448483,-0.535034,0.43219,0.570801,0.993912,-0.026246,-0.062501,-28.987509,-54.09191,23.130291
1784155992.2679,15:53:12.267,16,false,0.448811,-0.53479,0.432312,0.570679,1.000259,-0.008667,-0.071778,-28.97485,-54.110964,23.209877
1784155992.2991,15:53:12.299,17,false,0.448746,-0.534912,0.432068,0.570801,0.998795,-0.003784,-0.061036,-28.948502,-54.023435,23.146919
1784155992.3302,15:53:12.330,18,false,0.448877,-0.534851,0.432007,0.570801,0.999771,-0.004761,-0.064942,-28.92479,-53.98952,23.165027
1784155992.3613,15:53:12.361,19,false,0.448823,-0.534912,0.432068,0.57074,0.984146,-0.000855,-0.055665,-28.933356,-53.914136,23.211231
1784155992.3925,15:53:12.392,20,false,0.448673,-0.534973,0.432068,0.570801,0.986587,-0.017456,-0.049805,-28.836389,-53.891151,23.11823
1784155992.4236,15:53:12.423,21,false,0.448549,-0.535095,0.431885,0.570923,0.99147,-0.006226,-0.053712,-28.928564,-53.825604,23.213976
1784155992.455,15:53:12.455,22,false,0.44876,-0.534851,0.432129,0.570801,1.002701,-0.025757,-0.057618,-28.906845,-53.766611,23.225377
1784155992.4863,15:53:12.486,23,false,0.448623,-0.534851,0.43219,0.570862,0.989517,-0.014527,-0.061524,-28.887298,-53.863056,23.16087
1784155992.5176,15:53:12.517,24,false,0.448591,-0.534912,0.432068,0.570923,0.989517,-0.01062,-0.063966,-29.034198,-53.755456,23.162628
1784155992.549,15:53:12.549,25,false,0.448635,-0.534973,0.431946,0.570923,0.999771,-0.001831,-0.048829,-28.986962,-53.733386,23.089442
1784155992.5803,15:53:12.580,26,false,0.448746,-0.534912,0.432068,0.570801,0.999771,-0.01355,-0.067872,-28.899588,-53.892969,23.12825
1784155992.6115,15:53:12.611,27,false,0.448807,-0.534729,0.432312,0.57074,0.979263,-0.014038,-0.062501,-29.030305,-53.722562,23.297763
1784155992.6428,15:53:12.642,28,false,0.448976,-0.534668,0.432373,0.570618,1.002701,0.002075,-0.062013,-29.013366,-53.778551,23.211063
1784155992.6739,15:53:12.673,29,false,0.449062,-0.534546,0.432434,0.570618,0.992447,-0.025757,-0.0542,-28.848583,-53.82894,23.312479
1784155992.7051,15:53:12.705,30,false,0.448917,-0.534668,0.432434,0.570618,0.996841,-0.002808,-0.056153,-28.849816,-53.75466,23.224307
1784155992.7362,15:53:12.736,31,false,0.448825,-0.534729,0.432373,0.570679,1.005142,-0.006226,-0.055177,-28.79111,-53.822392,23.204768
1784155992.7674,15:53:12.767,0,false,0.448228,-0.53479,0.432434,0.571045,0.991958,-0.008179,-0.059083,-28.693414,-53.868397,23.232044
1784155992.7985,15:53:12.798,1,false,0.447951,-0.534729,0.432312,0.571411,1.000259,-0.019898,-0.056641,-28.784933,-53.909802,23.047239
1784155992.8298,15:53:12.829,2,false,0.44764,-0.534729,0.432312,0.571655,1.006607,-0.01062,-0.052735,-28.8673,-53.902205,23.090269
1784155992.8612,15:53:12.861,3,false,0.447334,-0.534851,0.4328,0.571411,1.008072,-0.021851,-0.05127,-28.836754,-53.970136,23.233672
1784155992.8925,15:53:12.892,4,false,0.447008,-0.534973,0.433228,0.571228,0.9944,-0.025757,-0.043946,-28.659724,-54.031275,23.22815
1784155992.9239,15:53:12.923,5,false,0.447115,-0.534668,0.433655,0.571106,0.988052,-0.024781,-0.047364,-28.620027,-54.026484,23.312903
1784155992.9552,15:53:12.955,6,false,0.447511,-0.534485,0.433472,0.571106,0.998306,-0.02771,-0.047364,-28.569347,-53.977311,23.299459
1784155992.9865,15:53:12.986,7,false,0.447952,-0.534363,0.433167,0.571106,1.008072,-0.004761,-0.055665,-28.643365,-53.888194,23.25745
1784155993.0177,15:53:13.017,8,false,0.447979,-0.534424,0.432983,0.571167,0.991958,-0.020386,-0.056153,-28.739889,-53.85285,23.428997
1784155993.0488,15:53:13.048,9,false,0.44807,-0.534363,0.433044,0.571106,0.992935,-0.015991,-0.062989,-28.692176,-53.761224,23.388989
1784155993.08,15:53:13.080,10,false,0.44807,-0.534363,0.433044,0.571106,1.000748,-0.01648,-0.058106,-28.619327,-53.932977,23.352981
1784155993.1111,15:53:13.111,11,false,0.447567,-0.534607,0.432861,0.571411,0.990494,-0.019409,-0.055177,-28.613578,-54.027739,23.305621
1784155993.1422,15:53:13.142,12,false,0.446848,-0.535095,0.432678,0.571655,0.995377,-0.027222,-0.0542,-28.578496,-54.068164,23.277951
1784155993.1734,15:53:13.173,13,false,0.446505,-0.535217,0.4328,0.571716,0.996353,-0.035035,-0.046387,-28.606738,-54.119499,23.193232
1784155993.2047,15:53:13.204,14,false,0.446446,-0.535217,0.432861,0.571716,1.01442,-0.018921,-0.047364,-28.632156,-54.090932,23.191754
1784155993.2361,15:53:13.236,15,false,0.446309,-0.535217,0.432922,0.571777,1.003677,-0.023316,-0.03711,-28.625124,-54.169899,23.220332
1784155993.2674,15:53:13.267,16,false,0.44646,-0.535156,0.432922,0.571716,1.009537,-0.016968,-0.049317,-28.663657,-54.076477,23.261005
1784155993.2987,15:53:13.298,17,false,0.446769,-0.534912,0.433228,0.571472,1.006119,-0.018921,-0.048829,-28.698336,-54.186796,23.372381
1784155993.3301,15:53:13.330,18,false,0.446488,-0.535034,0.433044,0.571716,0.990982,-0.024781,-0.050294,-28.639825,-54.121592,23.248312
1784155993.3614,15:53:13.361,19,false,0.446225,-0.535156,0.432922,0.571899,1.003189,-0.038941,-0.061524,-28.527349,-54.033,23.076834
1784155993.3927,15:53:13.392,20,false,0.446008,-0.535339,0.432678,0.572083,0.991958,-0.021851,-0.055665,-28.560706,-54.057945,22.83278
1784155993.4238,15:53:13.423,21,false,0.445934,-0.5354,0.432678,0.572083,0.998306,-0.022827,-0.056641,-28.515957,-54.080395,23.001932
1784155993.4549,15:53:13.454,22,false,0.446239,-0.535095,0.432983,0.571899,1.001724,-0.026246,-0.065919,-28.535499,-54.070692,23.064446
1784155993.4861,15:53:13.486,23,false,0.446109,-0.535156,0.4328,0.572083,0.989517,-0.022339,-0.061524,-28.627856,-54.106821,23.060893
1784155993.5172,15:53:13.517,24,false,0.446211,-0.535217,0.432861,0.571899,1.005142,-0.01355,-0.053712,-28.696023,-54.184199,23.177326
1784155993.5484,15:53:13.548,25,false,0.446065,-0.535339,0.432861,0.571899,0.996841,-0.014038,-0.05127,-28.727466,-54.238885,23.192393
1784155993.5797,15:53:13.579,26,false,0.445973,-0.5354,0.4328,0.57196,0.991958,-0.01355,-0.052247,-28.755765,-54.288102,23.280722
1784155993.6111,15:53:13.611,27,false,0.445821,-0.535461,0.4328,0.572021,1.000259,-0.023316,-0.051759,-28.706464,-54.227721,23.360218
1784155993.6424,15:53:13.642,28,false,0.445927,-0.535339,0.432922,0.57196,1.001236,-0.014527,-0.056641,-28.617232,-54.263101,23.416811
1784155993.6737,15:53:13.673,29,false,0.446178,-0.535095,0.433289,0.571716,0.990005,-0.02771,-0.05127,-28.611693,-54.369712,23.467745
1784155993.7051,15:53:13.705,30,false,0.446211,-0.535034,0.433411,0.571655,0.986587,-0.033082,-0.058106,-28.621661,-54.256309,23.274323
1784155993.7364,15:53:13.736,31,false,0.445901,-0.535278,0.433105,0.571899,0.996841,-0.018921,-0.050782,-28.690448,-54.318738,23.189967
1784155993.7678,15:53:13.767,0,false,0.445565,-0.535461,0.432983,0.572083,0.989517,-0.035523,-0.048341,-28.722448,-54.150616,23.20377
1784155993.7989,15:53:13.798,1,false,0.445565,-0.535461,0.432983,0.572083,0.994888,-0.029664,-0.056153,-28.855926,-54.014261,23.201238
1784155993.83,15:53:13.830,2,false,0.445342,-0.535583,0.432739,0.572327,1.005142,-0.029175,-0.055665,-28.751748,-54.175664,23.169052
1784155993.8612,15:53:13.861,3,false,0.445277,-0.535522,0.4328,0.572388,0.995865,-0.028687,-0.059083,-28.762664,-54.291019,23.095223
1784155993.8923,15:53:13.892,4,false,0.445171,-0.535645,0.432678,0.572449,0.991958,-0.024781,-0.046876,-28.787443,-54.260253,23.088592
1784155993.9237,15:53:13.923,5,false,0.444873,-0.535828,0.432434,0.572693,0.997818,-0.012573,-0.056153,-28.884513,-54.307334,22.933086
1784155993.955,15:53:13.955,6,false,0.444854,-0.535828,0.432373,0.572754,0.996353,-0.023804,-0.045411,-28.927015,-54.230076,22.927715
1784155993.9863,15:53:13.986,7,false,0.445006,-0.535767,0.432373,0.572693,0.990005,-0.01062,-0.054688,-28.770866,-54.369897,22.922882
1784155994.0177,15:53:14.017,8,false,0.444875,-0.535828,0.43219,0.572876,0.989517,-0.025269,-0.06836,-28.794825,-54.331244,22.828808
1784155994.049,15:53:14.049,9,false,0.444796,-0.535828,0.43219,0.572937,1.015885,-0.018433,-0.047364,-28.816388,-54.341318,22.878727
1784155994.0804,15:53:14.080,10,false,0.444577,-0.536011,0.431946,0.57312,0.999771,-0.011597,-0.050294,-28.865702,-54.395246,22.83393
1784155994.1117,15:53:14.111,11,false,0.444665,-0.535889,0.432007,0.57312,1.000259,-0.015503,-0.058106,-28.925038,-54.473689,22.77866
1784155994.1428,15:53:14.142,12,false,0.444836,-0.535828,0.432068,0.572998,0.995865,-0.016968,-0.05127,-28.843857,-54.484472,22.818639
1784155994.174,15:53:14.174,13,false,0.444665,-0.535889,0.432007,0.57312,0.992935,-0.024781,-0.043946,-28.815655,-54.419408,22.779851
1784155994.2051,15:53:14.205,14,false,0.444631,-0.53595,0.431885,0.573181,0.993912,-0.01648,-0.049317,-28.820181,-54.435619,22.715035
1784155994.2363,15:53:14.236,15,false,0.444572,-0.53595,0.431946,0.573181,0.989517,-0.027222,-0.050294,-28.824254,-54.345533,22.731469
1784155994.2674,15:53:14.267,16,false,0.444454,-0.53595,0.431824,0.573364,0.989029,-0.021851,-0.056153,-28.887735,-54.234547,22.686444
1784155994.2985,15:53:14.298,17,false,0.444356,-0.53595,0.431763,0.573486,0.989517,-0.029175,-0.061036,-28.929915,-54.269244,22.735645
1784155994.3299,15:53:14.329,18,false,0.444356,-0.53595,0.431763,0.573486,1.006119,-0.015015,-0.053223,-28.937969,-54.106072,22.79488
1784155994.3612,15:53:14.361,19,false,0.444165,-0.536011,0.431641,0.573669,1.002701,-0.013062,-0.055177,-28.915309,-53.959217,22.773422
1784155994.3926,15:53:14.392,20,false,0.444131,-0.536072,0.431519,0.57373,0.992447,-0.011109,-0.063478,-28.879962,-53.871909,22.918602
1784155994.4239,15:53:14.423,21,false,0.444057,-0.536133,0.431519,0.57373,1.002701,-0.013062,-0.056153,-28.84815,-53.94287,22.944588
1784155994.4552,15:53:14.455,22,false,0.444131,-0.536072,0.431519,0.57373,0.998795,-0.022339,-0.0542,-28.924195,-53.976828,22.863297
1784155994.4866,15:53:14.486,23,false,0.444396,-0.53595,0.431641,0.573547,0.993423,-0.020386,-0.059571,-29.00759,-54.097112,22.939675
1784155994.5177,15:53:14.517,24,false,0.444694,-0.535767,0.431885,0.573303,1.002213,-0.016968,-0.060548,-28.977969,-54.205369,23.053276
1784155994.5489,15:53:14.548,25,false,0.444802,-0.535645,0.432007,0.573242,0.996353,-0.022339,-0.045411,-29.115802,-54.168214,23.200378
1784155994.58,15:53:14.580,26,false,0.444928,-0.535522,0.43219,0.57312,0.990494,-0.022339,-0.05713,-29.090313,-54.134776,23.168278
1784155994.6111,15:53:14.611,27,false,0.444889,-0.535522,0.432068,0.573242,0.990494,-0.025269,-0.062013,-29.246819,-54.119635,23.154342
1784155994.6423,15:53:14.642,28,false,0.44483,-0.535522,0.432129,0.573242,0.997818,-0.018433,-0.050782,-29.223182,-54.255547,23.141799
1784155994.6734,15:53:14.673,29,false,0.444737,-0.535583,0.432068,0.573303,0.996353,-0.01355,-0.054688,-29.172002,-54.123652,23.055742
1784155994.7048,15:53:14.704,30,false,0.444625,-0.535645,0.431946,0.573425,0.990982,-0.017456,-0.055665,-29.125939,-54.109624,23.008197
1784155994.7361,15:53:14.736,31,false,0.444718,-0.535583,0.432007,0.573364,1.003189,-0.027222,-0.064454,-29.039621,-54.171767,22.905592
1784155994.7674,15:53:14.767,0,false,0.444546,-0.535645,0.431946,0.573486,0.989029,-0.020386,-0.063966,-29.036704,-54.04825,23.052509
1784155994.7988,15:53:14.798,1,false,0.444791,-0.535522,0.432007,0.573364,1.000748,-0.035035,-0.053712,-28.914448,-54.026808,23.035196
1784155994.8301,15:53:14.830,2,false,0.444831,-0.535522,0.431885,0.573425,0.9944,-0.016968,-0.059571,-28.834326,-53.977603,23.07943
1784155994.8615,15:53:14.861,3,false,0.444764,-0.535645,0.431641,0.573547,1.005631,-0.009644,-0.049805,-28.777169,-53.948272,23.074378
1784155994.8928,15:53:14.892,4,false,0.444823,-0.535645,0.43158,0.573547,0.998795,-0.027222,-0.053223,-28.785544,-53.981689,23.114694
1784155994.9239,15:53:14.923,5,false,0.444871,-0.535522,0.431763,0.573486,0.999283,-0.025757,-0.059571,-28.613635,-54.116441,23.091162
1784155994.9551,15:53:14.955,6,false,0.444911,-0.535522,0.431641,0.573547,0.993912,-0.004761,-0.059083,-28.683224,-54.133042,23.099891
1784155994.9862,15:53:14.986,7,false,0.44497,-0.535522,0.43158,0.573547,1.002213,-0.022339,-0.051759,-28.745855,-54.17789,23.107747
1784155995.0174,15:53:15.017,8,false,0.444922,-0.535645,0.431396,0.573608,0.990982,-0.011109,-0.050782,-28.667638,-53.978991,23.129772
1784155995.0485,15:53:15.048,9,false,0.444781,-0.535828,0.431152,0.57373,0.993912,-0.01355,-0.056641,-28.507519,-54.188783,23.209409
1784155995.0797,15:53:15.079,10,false,0.444933,-0.535767,0.431152,0.573669,0.999283,-0.007202,-0.05713,-28.483043,-54.093472,23.19136
1784155995.111,15:53:15.111,11,false,0.445021,-0.535645,0.431213,0.573669,0.989029,-0.015991,-0.055177,-28.580646,-54.052554,23.205023
1784155995.1423,15:53:15.142,12,false,0.44508,-0.535645,0.431152,0.573669,0.992935,-0.007691,-0.061036,-28.668488,-53.970866,23.292089
1784155995.1737,15:53:15.173,13,false,0.445105,-0.535706,0.430969,0.57373,1.005142,-0.018433,-0.053223,-28.7625,-53.957162,23.250818
1784155995.205,15:53:15.205,14,false,0.445071,-0.535767,0.430847,0.573792,1.004654,-0.017945,-0.055665,-28.772341,-53.944829,23.243582
1784155995.2364,15:53:15.236,15,false,0.444963,-0.535889,0.430725,0.573853,0.993423,-0.011109,-0.060548,-28.706429,-53.903821,23.132392
1784155995.2675,15:53:15.267,16,false,0.444983,-0.535889,0.430542,0.573975,0.993423,-0.013062,-0.050782,-28.736832,-53.986545,23.047275
1784155995.2986,15:53:15.298,17,false,0.444969,-0.53595,0.430481,0.573975,0.999771,-0.017945,-0.0542,-28.838963,-54.031089,23.000578
1784155995.3298,15:53:15.329,18,false,0.444994,-0.536011,0.430298,0.574036,1.003189,-0.01355,-0.069825,-28.736481,-54.011363,23.093135
1784155995.3609,15:53:15.360,19,false,0.444915,-0.536011,0.430298,0.574097,1.001236,-0.008179,-0.059571,-28.823694,-53.91884,23.101667
1784155995.3921,15:53:15.392,20,false,0.444974,-0.536011,0.430237,0.574097,0.992447,-0.012085,-0.050294,-28.722739,-53.880432,23.034576
1784155995.4232,15:53:15.423,21,false,0.445194,-0.535828,0.430481,0.573914,0.995377,-0.010132,-0.064454,-28.676741,-53.965494,23.138687
1784155995.4545,15:53:15.454,22,false,0.445253,-0.535828,0.43042,0.573914,0.998306,-0.019898,-0.047852,-28.54562,-53.92242,23.172571
1784155995.4859,15:53:15.485,23,false,0.445268,-0.535767,0.430481,0.573914,1.002213,-0.012573,-0.052247,-28.472472,-53.913561,23.143252
1784155995.5172,15:53:15.517,24,false,0.445033,-0.536011,0.430176,0.574097,0.999771,-0.007202,-0.066407,-28.346824,-53.995311,23.161726
1784155995.5486,15:53:15.548,25,false,0.445013,-0.536011,0.430115,0.574158,0.985611,-0.01062,-0.065431,-28.30851,-54.113747,23.073676
1784155995.5799,15:53:15.579,26,false,0.444886,-0.536133,0.429932,0.57428,0.9944,-0.007691,-0.053223,-28.498335,-54.175479,23.129015
