Timestamp,Local time,Counter,Interpolated,Accelerometer X,Accelerometer Y,Accelerometer Z,Magnetometer X,Magnetometer Y,Magnetometer Z,Quaternion 0,Quaternion 1,Quaternion 2,Quaternion 3
1783968000.7697,11:40:00.769,17,false,0.64272,-0.32843,0.519775,0.457031,0.98732,-0.060548,-0.240238,-25.447971,-56.770303,16.196127
1783968000.801,11:40:00.801,18,false,0.64282,-0.328308,0.519836,0.456909,0.974136,-0.053223,-0.247074,-25.280834,-56.820594,16.370975
1783968000.8324,11:40:00.832,19,false,0.642708,-0.328369,0.519775,0.457092,0.986831,-0.045899,-0.251957,-25.205181,-56.835948,16.274123
1783968000.8637,11:40:00.863,20,false,0.642665,-0.328369,0.519775,0.457153,0.991714,-0.059571,-0.251957,-25.181954,-56.924536,16.261726
1783968000.8951,11:40:00.895,21,false,0.642665,-0.328369,0.519775,0.457153,0.982925,-0.050294,-0.252934,-25.220866,-56.94445,16.10103
1783968000.9262,11:40:00.926,22,false,0.642664,-0.328491,0.519592,0.457275,0.980972,-0.048341,-0.254887,-25.136255,-57.007234,16.195665
1783968000.9573,11:40:00.957,23,false,0.642756,-0.328491,0.519531,0.457214,0.978531,-0.041016,-0.25684,-25.149829,-57.078693,16.265882
1783968000.9885,11:40:00.988,24,false,0.6429,-0.328369,0.519592,0.457031,0.985855,-0.050294,-0.23975,-25.191953,-57.008422,16.269263
1783968001.0196,11:40:01.019,25,false,0.642869,-0.32843,0.519592,0.457031,0.984878,-0.050782,-0.248051,-25.080326,-56.99004,16.391936
1783968001.0508,11:40:01.050,26,false,0.642788,-0.328491,0.519653,0.457031,0.981949,-0.045411,-0.245609,-25.099493,-57.137988,16.442527
1783968001.0819,11:40:01.081,27,false,0.642781,-0.328735,0.519775,0.456726,0.990249,-0.040528,-0.245609,-25.14665,-57.211326,16.473104
1783968001.1132,11:40:01.113,28,false,0.642624,-0.329285,0.519836,0.456482,0.990738,-0.05127,-0.250492,-25.219,-57.127791,16.530532
1783968001.1446,11:40:01.144,29,false,0.642621,-0.329834,0.519653,0.456299,0.980484,-0.027832,-0.243656,-25.373838,-57.142333,16.567263
1783968001.1759,11:40:01.175,30,false,0.642785,-0.330139,0.51947,0.456055,0.985367,-0.040528,-0.258793,-25.333745,-57.095606,16.495644
1783968001.2072,11:40:01.207,31,false,0.643095,-0.331299,0.518616,0.45575,0.984878,-0.027344,-0.263676,-25.462155,-57.023644,16.520909
1783968001.2386,11:40:01.238,0,false,0.6434,-0.331665,0.518433,0.455261,0.988785,-0.026368,-0.255863,-25.488,-57.018693,16.528695
1783968001.2697,11:40:01.269,1,false,0.643181,-0.332947,0.518311,0.454773,0.999527,-0.020508,-0.246098,-25.436491,-57.014237,16.565609
1783968001.3009,11:40:01.300,2,false,0.642974,-0.333679,0.518311,0.454529,0.982437,-0.035157,-0.240238,-25.464903,-57.010227,16.568925
1783968001.332,11:40:01.332,3,false,0.642537,-0.334473,0.518127,0.454773,0.987808,-0.035645,-0.247074,-25.490473,-56.901941,16.527047
1783968001.3631,11:40:01.363,4,false,0.641678,-0.335632,0.518066,0.4552,0.986343,-0.026368,-0.238285,-25.378902,-56.894207,16.444496
1783968001.3943,11:40:01.394,5,false,0.641185,-0.336548,0.517761,0.455566,0.973159,-0.033204,-0.231449,-25.502796,-56.842384,16.549646
1783968001.4254,11:40:01.425,6,false,0.640992,-0.337219,0.517456,0.455688,0.968276,-0.042481,-0.235843,-25.449808,-56.855559,16.509696
1783968001.4566,11:40:01.456,7,false,0.641201,-0.338257,0.516357,0.455872,0.986831,-0.035157,-0.246586,-25.432026,-56.76274,16.518603
1783968001.4877,11:40:01.487,8,false,0.641544,-0.338745,0.515503,0.455994,0.977554,-0.042481,-0.238773,-25.460884,-56.813787,16.377081
1783968001.519,11:40:01.519,9,false,0.642266,-0.339417,0.51416,0.455994,0.980972,-0.034668,-0.255375,-25.50181,-56.844776,16.414203
1783968001.5504,11:40:01.550,10,false,0.642667,-0.339355,0.513916,0.45575,0.980972,-0.037598,-0.244633,-25.673229,-56.633404,16.462567
1783968001.5817,11:40:01.581,11,false,0.643839,-0.33905,0.513245,0.455078,0.979995,-0.023438,-0.262211,-25.633105,-56.592708,16.506094
1783968001.613,11:40:01.613,12,false,0.644586,-0.338562,0.513062,0.45459,0.982925,-0.019043,-0.258305,-25.58204,-56.571036,16.485453
1783968001.6442,11:40:01.644,13,false,0.645239,-0.338013,0.513306,0.453796,0.993179,-0.011231,-0.248539,-25.595897,-56.4319,16.601461
1783968001.6753,11:40:01.675,14,false,0.645674,-0.337585,0.513794,0.452942,0.98146,-0.020508,-0.25098,-25.668183,-56.3964,16.511469
1783968001.7065,11:40:01.706,15,false,0.645828,-0.337341,0.513977,0.452698,0.986831,-0.036133,-0.256352,-25.523887,-56.349497,16.550106
1783968001.7376,11:40:01.737,16,false,0.645956,-0.337158,0.514526,0.452026,0.988785,-0.036622,-0.238773,-25.319251,-56.382053,16.480202
1783968001.7687,11:40:01.768,17,false,0.645691,-0.337341,0.514954,0.451782,0.98439,-0.029786,-0.243656,-25.389295,-56.291723,16.521966
1783968001.7999,11:40:01.799,18,false,0.644557,-0.338074,0.515625,0.452087,0.982925,-0.023926,-0.237797,-25.557011,-56.41978,16.469831
1783968001.831,11:40:01.831,19,false,0.642977,-0.339111,0.516113,0.453003,1.018082,-0.030762,-0.230472,-25.707955,-56.385492,16.288324
1783968001.8621,11:40:01.862,20,false,0.640601,-0.340088,0.517029,0.45459,1.009293,-0.03711,-0.227054,-25.739128,-56.369587,16.199737
1783968001.8935,11:40:01.893,21,false,0.636399,-0.340881,0.518677,0.458008,0.9673,-0.073243,-0.218265,-25.797091,-56.370227,16.105055
1783968001.9248,11:40:01.924,22,false,0.634081,-0.341064,0.519287,0.460388,0.962905,-0.078126,-0.219242,-25.729627,-56.370802,16.064703
1783968001.9562,11:40:01.956,23,false,0.632468,-0.340942,0.519653,0.46228,0.964858,-0.079103,-0.223636,-25.758633,-56.401228,15.998479
1783968001.9875,11:40:01.987,24,false,0.631675,-0.339966,0.519897,0.463806,0.979995,-0.079591,-0.242679,-25.75483,-56.308981,16.058507
1783968002.0186,11:40:02.018,25,false,0.631582,-0.339172,0.520203,0.464172,0.977066,-0.078126,-0.241215,-25.691593,-56.315681,16.157394
1783968002.05,11:40:02.050,26,false,0.631827,-0.33783,0.520996,0.463928,0.965835,-0.082521,-0.240726,-25.724402,-56.231988,16.15667
1783968002.0813,11:40:02.081,27,false,0.631973,-0.337524,0.521179,0.463745,0.973648,-0.078126,-0.239261,-25.604392,-56.156664,16.081248
1783968002.1125,11:40:02.112,28,false,0.632899,-0.336426,0.521851,0.462524,0.982437,-0.070802,-0.236332,-25.451521,-56.223458,16.073185
1783968002.1436,11:40:02.143,29,false,0.633464,-0.335693,0.522339,0.461731,0.997086,-0.069337,-0.241703,-25.269076,-56.23871,16.03602
1783968002.1747,11:40:02.174,30,false,0.634294,-0.33429,0.523254,0.460571,0.994156,-0.063478,-0.242679,-25.314229,-56.237483,16.152109
1783968002.2059,11:40:02.205,31,false,0.634857,-0.333069,0.524048,0.459778,0.983902,-0.072267,-0.240238,-25.354867,-56.236379,16.151913
1783968002.237,11:40:02.237,0,false,0.635339,-0.331909,0.524841,0.459045,0.973159,-0.061524,-0.235355,-25.391441,-56.384924,16.121829
1783968002.2683,11:40:02.268,1,false,0.635502,-0.330444,0.52594,0.458618,0.990249,-0.065919,-0.230961,-25.364542,-56.57843,16.0798
1783968002.2997,11:40:02.299,2,false,0.635402,-0.329651,0.526611,0.458557,0.973648,-0.074708,-0.241215,-25.385195,-56.603047,16.071881
1783968002.331,11:40:02.331,3,false,0.635381,-0.328796,0.527649,0.458008,0.991226,-0.067872,-0.2168,-25.358921,-56.65511,16.139523
1783968002.3624,11:40:02.362,4,false,0.635039,-0.328796,0.527954,0.45813,0.985367,-0.062013,-0.220218,-25.395089,-56.71692,16.110678
1783968002.3937,11:40:02.393,5,false,0.634797,-0.328674,0.52832,0.45813,0.985367,-0.05127,-0.218265,-25.30801,-56.712734,16.219302
1783968002.4248,11:40:02.424,6,false,0.63379,-0.328857,0.528992,0.458618,0.992691,-0.053712,-0.231449,-25.304409,-56.813643,16.287156
1783968002.456,11:40:02.456,7,false,0.632902,-0.328857,0.529419,0.459351,0.983902,-0.056641,-0.214359,-25.346028,-56.8596,16.318316
1783968002.4871,11:40:02.487,8,false,0.631765,-0.328918,0.529785,0.460449,0.980484,-0.065919,-0.219242,-25.338625,-56.900961,16.196823
1783968002.5183,11:40:02.518,9,false,0.630379,-0.328552,0.530334,0.461975,0.978531,-0.066407,-0.220706,-25.257192,-56.878371,16.192155
1783968002.5494,11:40:02.549,10,false,0.629518,-0.328064,0.530701,0.463074,0.984878,-0.091798,-0.215824,-25.378303,-56.917855,16.187955
1783968002.5805,11:40:02.580,11,false,0.628407,-0.327271,0.531067,0.464722,0.98146,-0.096193,-0.223148,-25.472349,-57.087976,16.16922
1783968002.6119,11:40:02.611,12,false,0.628076,-0.327026,0.531128,0.465271,0.979995,-0.098634,-0.224613,-25.631759,-57.270992,16.152359
1783968002.6432,11:40:02.643,13,false,0.62784,-0.325989,0.531189,0.466248,0.999527,-0.088869,-0.230472,-25.595783,-57.316075,16.152138
1783968002.6745,11:40:02.674,14,false,0.627947,-0.325134,0.531372,0.466492,1.000992,-0.083986,-0.238773,-25.593311,-57.266928,16.107078
1783968002.7059,11:40:02.705,15,false,0.628096,-0.32373,0.531677,0.466919,0.986831,-0.088869,-0.21973,-25.48641,-57.267556,16.216062
1783968002.7372,11:40:02.737,16,false,0.627795,-0.322754,0.531982,0.467651,0.965835,-0.105959,-0.226566,-25.50983,-57.342891,16.134701
1783968002.7684,11:40:02.768,17,false,0.627814,-0.321289,0.532471,0.468079,0.978042,-0.119631,-0.235355,-25.441184,-57.365831,16.1512
1783968002.7995,11:40:02.799,18,false,0.628028,-0.319458,0.532837,0.468628,0.962905,-0.11426,-0.217777,-25.409311,-57.341615,16.285679
1783968002.8306,11:40:02.830,19,false,0.628434,-0.319031,0.532776,0.468445,0.968276,-0.1084,-0.23389,-25.32081,-57.334775,16.376803
1783968002.8618,11:40:02.861,20,false,0.629051,-0.318848,0.532532,0.468018,0.972671,-0.103029,-0.232914,-25.420605,-57.56788,16.488722
1783968002.8929,11:40:02.892,21,false,0.629965,-0.31842,0.531921,0.467773,0.971206,-0.107912,-0.23975,-25.510421,-57.568321,16.410003
1783968002.9241,11:40:02.924,22,false,0.630549,-0.31781,0.531433,0.467957,0.971695,-0.113283,-0.232425,-25.45667,-57.434133,16.309249
1783968002.9552,11:40:02.955,23,false,0.631496,-0.316956,0.530334,0.468506,0.968765,-0.115724,-0.245121,-25.258756,-57.418041,16.188662
1783968002.9863,11:40:02.986,24,false,0.632001,-0.31665,0.529968,0.468445,0.989273,-0.11133,-0.247562,-25.26008,-57.478328,16.229672
1783968003.0177,11:40:03.017,25,false,0.63333,-0.316284,0.52887,0.46814,0.993668,-0.1084,-0.275395,-25.291179,-57.592401,16.02732
1783968003.049,11:40:03.049,26,false,0.634768,-0.315491,0.52832,0.467346,0.991226,-0.094728,-0.259281,-25.244399,-57.695067,16.024649
1783968003.0803,11:40:03.080,27,false,0.635517,-0.315308,0.528015,0.466797,0.993668,-0.091798,-0.262699,-25.277066,-57.787466,16.097014
1783968003.1117,11:40:03.111,28,false,0.636532,-0.315857,0.527649,0.465454,0.988785,-0.073732,-0.252934,-25.32142,-57.885579,16.07242
1783968003.143,11:40:03.143,29,false,0.63677,-0.316223,0.527466,0.465088,0.980484,-0.07715,-0.248051,-25.271616,-57.884158,16.065239
1783968003.1744,11:40:03.174,30,false,0.637035,-0.317261,0.527222,0.464294,0.962417,-0.079591,-0.249516,-25.226792,-57.882878,16.088684
1783968003.2057,11:40:03.205,31,false,0.63707,-0.318054,0.526917,0.46405,0.97023,-0.07422,-0.239261,-25.111681,-57.85182,16.005107
1783968003.2368,11:40:03.236,0,false,0.637374,-0.319519,0.526306,0.463318,0.988296,-0.075196,-0.255863,-25.262297,-57.853774,16.079427
1783968003.268,11:40:03.268,1,false,0.637382,-0.320435,0.526062,0.462952,0.997574,-0.07715,-0.245609,-25.293174,-57.855534,15.996776
1783968003.2991,11:40:03.299,2,false,0.63718,-0.321289,0.526001,0.462708,0.977554,-0.079103,-0.247074,-25.216286,-57.767394,16.056975
1783968003.3303,11:40:03.330,3,false,0.636726,-0.322266,0.526489,0.462097,0.985367,-0.063478,-0.23389,-25.057365,-57.747883,16.051338
1783968003.3616,11:40:03.361,4,false,0.636293,-0.323059,0.526794,0.461792,0.993179,-0.070314,-0.23975,-24.929289,-57.670509,16.031312
1783968003.3929,11:40:03.392,5,false,0.63594,-0.323792,0.527039,0.461487,0.993668,-0.073732,-0.232425,-24.963559,-57.600871,16.013288
1783968003.4243,11:40:03.424,6,false,0.635378,-0.324768,0.527649,0.460876,0.979995,-0.067872,-0.221683,-25.069172,-57.687736,16.071835
1783968003.4556,11:40:03.455,7,false,0.634663,-0.325806,0.52771,0.46106,0.995621,-0.069825,-0.225589,-25.089454,-57.795822,16.049759
1783968003.4869,11:40:03.486,8,false,0.633827,-0.327454,0.527588,0.461182,0.980484,-0.076173,-0.226566,-25.152569,-57.788423,16.134567
1783968003.5183,11:40:03.518,9,false,0.633689,-0.328003,0.527466,0.461121,0.980484,-0.07129,-0.221683,-25.209373,-57.632225,16.136125
1783968003.5496,11:40:03.549,10,false,0.633399,-0.329346,0.526978,0.461121,0.98146,-0.074708,-0.220218,-25.185727,-57.641185,16.182389
1783968003.581,11:40:03.581,11,false,0.633462,-0.330078,0.52655,0.460999,0.988785,-0.075685,-0.236332,-25.3738,-57.484757,16.31375
1783968003.6121,11:40:03.612,12,false,0.633127,-0.331543,0.525818,0.461243,0.979019,-0.068849,-0.225101,-25.348665,-57.448649,16.282436
1783968003.6432,11:40:03.643,13,false,0.633119,-0.331848,0.525635,0.461243,0.971206,-0.082521,-0.233402,-25.415767,-57.401198,16.343976
1783968003.6744,11:40:03.674,14,false,0.633074,-0.33197,0.525452,0.461426,0.981949,-0.077638,-0.242191,-25.431297,-57.373445,16.30964
1783968003.7055,11:40:03.705,15,false,0.633304,-0.331665,0.525635,0.461121,0.982437,-0.070314,-0.23389,-25.475182,-57.39333,16.353506
1783968003.7367,11:40:03.736,16,false,0.633264,-0.33197,0.52533,0.461304,0.993668,-0.046387,-0.233402,-25.514678,-57.336457,16.318216
1783968003.768,11:40:03.768,17,false,0.632897,-0.332764,0.524841,0.461792,0.985855,-0.059083,-0.239261,-25.385733,-57.195548,16.346271
1783968003.7993,11:40:03.799,18,false,0.632348,-0.333801,0.524414,0.46228,0.991226,-0.059083,-0.247562,-25.359405,-57.113591,16.207028
1783968003.8307,11:40:03.830,19,false,0.631535,-0.334961,0.52417,0.46283,0.990738,-0.056641,-0.235843,-25.320756,-57.099646,16.096663
1783968003.862,11:40:03.862,20,false,0.630292,-0.336487,0.523987,0.463623,0.98732,-0.07129,-0.227543,-25.390649,-57.057187,16.072104
1783968003.8933,11:40:03.893,21,false,0.629557,-0.337463,0.523865,0.46405,0.985367,-0.059083,-0.243656,-25.348875,-56.944205,16.229447
1783968003.9247,11:40:03.924,22,false,0.628911,-0.338928,0.523315,0.464478,0.983902,-0.064454,-0.235355,-25.341187,-57.021967,16.296286
1783968003.956,11:40:03.956,23,false,0.627973,-0.341858,0.522156,0.464905,0.985367,-0.05713,-0.229007,-25.244545,-57.106907,16.19195
1783968003.9872,11:40:03.987,24,false,0.627615,-0.343506,0.521667,0.464722,0.98732,-0.061524,-0.236332,-25.396828,-56.988953,16.262539
1783968004.0183,11:40:04.018,25,false,0.626718,-0.346008,0.520874,0.464966,0.970718,-0.05713,-0.22266,-25.36939,-57.002425,16.266254
1783968004.0494,11:40:04.049,26,false,0.626346,-0.346619,0.520752,0.465149,0.992691,-0.060548,-0.224125,-25.494235,-56.909873,16.16492
1783968004.0806,11:40:04.080,27,false,0.625267,-0.347534,0.521057,0.465576,1.001968,-0.058595,-0.220218,-25.472011,-56.84153,16.238212
1783968004.1117,11:40:04.111,28,false,0.624263,-0.347412,0.521851,0.466125,0.991714,-0.054688,-0.208988,-25.511824,-56.794976,16.423806
1783968004.1431,11:40:04.143,29,false,0.622762,-0.346497,0.523376,0.467102,0.982437,-0.051759,-0.207523,-25.487841,-56.708215,16.39644
1783968004.1744,11:40:04.174,30,false,0.621885,-0.346191,0.523804,0.468018,0.983413,-0.067872,-0.213382,-25.570933,-56.570315,16.326949
1783968004.2057,11:40:04.205,31,false,0.621214,-0.346619,0.523499,0.468933,0.974136,-0.047852,-0.198734,-25.570947,-56.446204,16.369085
1783968004.2371,11:40:04.237,0,false,0.620231,-0.350342,0.520203,0.47113,0.990738,-0.027344,-0.223636,-25.61582,-56.424228,16.347191
1783968004.2684,11:40:04.268,1,false,0.619565,-0.354736,0.516174,0.473145,0.966812,-0.011719,-0.196292,-25.686114,-56.389496,16.387302
1783968004.2997,11:40:04.299,2,false,0.618713,-0.361511,0.509705,0.476135,0.954116,0.082521,-0.20264,-25.67461,-56.238606,16.318725
1783968004.3311,11:40:04.331,3,false,0.615974,-0.37854,0.49231,0.48468,0.970718,0.11133,-0.205081,-25.828748,-56.057944,16.167283
1783968004.3622,11:40:04.362,4,false,0.611868,-0.393677,0.476196,0.493835,0.959976,0.136721,-0.229007,-25.847842,-55.715902,15.881447
1783968004.3934,11:40:04.393,5,false,0.600545,-0.421875,0.443359,0.514587,0.979019,0.18262,-0.29688,-25.835118,-55.183756,15.698962
1783968004.4245,11:40:04.424,6,false,0.594173,-0.432678,0.430481,0.523865,0.981949,0.135744,-0.333501,-25.763852,-54.689871,15.415097
1783968004.4556,11:40:04.455,7,false,0.570407,-0.465271,0.389832,0.553345,0.975601,0.129397,-0.357427,-25.565127,-53.856575,14.995126
1783968004.4868,11:40:04.486,8,false,0.54232,-0.493652,0.349915,0.582886,0.992203,0.019532,-0.389166,-25.431137,-52.852393,14.437705
1783968004.5181,11:40:04.518,9,false,0.524117,-0.506897,0.328552,0.600342,0.98439,-0.037598,-0.38233,-25.370361,-51.634599,14.055657
1783968004.5495,11:40:04.549,10,false,0.508585,-0.515564,0.312805,0.614563,0.999527,-0.074708,-0.354009,-25.196032,-50.389045,13.502461
1783968004.5808,11:40:04.580,11,false,0.496825,-0.520874,0.302673,0.624695,1.011246,-0.047364,-0.34815,-25.024182,-49.178324,12.91486
1783968004.6121,11:40:04.612,12,false,0.485534,-0.526367,0.295959,0.632141,0.980484,0.026368,-0.297856,-24.809701,-48.02886,12.475743
1783968004.6435,11:40:04.643,13,false,0.481533,-0.529602,0.294373,0.63324,0.967788,0.055177,-0.289555,-24.616669,-46.994342,12.005769
1783968004.6748,11:40:04.674,14,false,0.47823,-0.534424,0.29248,0.632568,0.965347,0.098634,-0.266606,-24.577524,-46.048322,11.851961
1783968004.7059,11:40:04.705,15,false,0.476713,-0.537354,0.290771,0.632019,0.98146,0.163088,-0.242679,-24.52734,-45.062319,11.593903
1783968004.7371,11:40:04.737,16,false,0.474821,-0.539795,0.28894,0.632202,0.979995,0.164553,-0.246586,-24.437313,-44.249686,11.316789
1783968004.7682,11:40:04.768,17,false,0.471141,-0.54248,0.286987,0.633545,0.975601,0.145022,-0.255863,-24.505827,-43.33887,11.172064
1783968004.7994,11:40:04.799,18,false,0.474423,-0.541077,0.291321,0.63031,0.976089,0.138186,-0.239261,-24.462813,-42.593905,11.011903
1783968004.8305,11:40:04.830,19,false,0.476397,-0.539917,0.295105,0.628052,0.968765,0.112795,-0.236332,-24.364285,-41.863621,10.778036
1783968004.8616,11:40:04.861,20,false,0.485337,-0.535339,0.305969,0.619873,0.9673,0.131838,-0.257816,-24.20084,-41.325996,10.642324
1783968004.893,11:40:04.893,21,false,0.491687,-0.532227,0.313354,0.613831,0.989761,0.134279,-0.249027,-24.218232,-40.857088,10.609907
1783968004.9243,11:40:04.924,22,false,0.501779,-0.526123,0.325806,0.60437,0.987808,0.084962,-0.248051,-24.233885,-40.360301,10.476054
1783968004.9557,11:40:04.955,23,false,0.505371,-0.523926,0.3302,0.600891,0.979995,0.07422,-0.231937,-24.247973,-40.062731,10.310726
1783968004.987,11:40:04.987,24,false,0.518684,-0.515625,0.344727,0.58844,0.990249,-0.009766,-0.29395,-24.185883,-39.720149,10.206791
1783968005.0183,11:40:05.018,25,false,0.530338,-0.507568,0.3573,0.577454,0.996597,-0.023926,-0.310552,-24.144955,-39.35201,10.30765
1783968005.0497,11:40:05.049,26,false,0.552995,-0.489563,0.383118,0.554749,0.98439,-0.050782,-0.336431,-24.18289,-39.244993,10.248885
1783968005.081,11:40:05.081,27,false,0.571105,-0.473206,0.404541,0.535034,0.995132,-0.012696,-0.369635,-24.172169,-39.268308,10.21095
1783968005.1121,11:40:05.112,28,false,0.590426,-0.453674,0.428772,0.511597,1.018082,0.000977,-0.376471,-24.192428,-39.438829,10.296439
1783968005.1433,11:40:05.143,29,false,0.619027,-0.420654,0.467957,0.469971,0.975601,0.13135,-0.321782,-24.405062,-39.786699,10.433195
1783968005.1744,11:40:05.174,30,false,0.636276,-0.398743,0.492554,0.439941,0.912612,0.206546,-0.275883,-24.55157,-40.279228,10.675906
1783968005.2056,11:40:05.205,31,false,0.660033,-0.366638,0.521729,0.397156,0.900893,0.210452,-0.216312,-24.818012,-40.886996,11.013976
1783968005.2369,11:40:05.236,0,false,0.673607,-0.348145,0.536377,0.370605,0.903334,0.367681,-0.110842,-24.997995,-41.628387,11.378055
1783968005.268,11:40:05.268,1,false,0.684805,-0.334229,0.545349,0.349182,0.854994,0.375982,-0.083009,-25.294564,-42.325547,11.645911
1783968005.2994,11:40:05.299,2,false,0.698369,-0.320984,0.550293,0.326233,1.021988,0.245121,-0.166506,-25.247445,-43.22216,12.111288
1783968005.3307,11:40:05.330,3,false,0.70439,-0.31427,0.552368,0.316162,1.013199,0.234867,-0.175784,-25.36953,-43.819758,12.515174
1783968005.3621,11:40:05.362,4,false,0.708458,-0.30835,0.554199,0.309631,1.001968,0.182132,-0.183597,-25.658853,-44.477226,13.058118
1783968005.3934,11:40:05.393,5,false,0.712652,-0.299927,0.556213,0.304626,0.98732,0.135744,-0.207523,-25.964106,-45.173625,13.471998
1783968005.4247,11:40:05.424,6,false,0.715026,-0.294067,0.557129,0.303101,0.995621,0.109377,-0.20264,-26.119202,-45.770476,13.784675
1783968005.4561,11:40:05.456,7,false,0.716506,-0.286743,0.557678,0.305603,0.995132,0.097658,-0.221195,-26.154112,-46.307643,14.17076
1783968005.4872,11:40:05.487,8,false,0.717143,-0.28363,0.55835,0.305786,0.978042,0.029297,-0.226078,-26.245346,-46.910723,14.503284
1783968005.5184,11:40:05.518,9,false,0.717666,-0.277832,0.559082,0.308533,0.974136,0.038575,-0.207034,-26.372318,-47.363772,14.712832
1783968005.5495,11:40:05.549,10,false,0.716075,-0.278381,0.558167,0.313354,0.987808,0.040528,-0.209964,-26.441732,-47.78647,14.916379
1783968005.5806,11:40:05.580,11,false,0.712576,-0.280457,0.557129,0.321228,1.004898,0.04004,-0.209964,-26.384573,-48.286529,14.994894
1783968005.612,11:40:05.612,12,false,0.710482,-0.28064,0.556946,0.325989,1.027359,0.023438,-0.223636,-26.422853,-48.930982,15.11042
1783968005.6431,11:40:05.643,13,false,0.708152,-0.28009,0.557129,0.331177,1.023453,0.007813,-0.227054,-26.457306,-49.481082,15.214393
1783968005.6744,11:40:05.674,14,false,0.703243,-0.281738,0.556213,0.341614,1.011246,0.028809,-0.223636,-26.563082,-49.931311,15.457507
1783968005.7058,11:40:05.705,15,false,0.699467,-0.283691,0.555664,0.348572,1.00734,0.018555,-0.214359,-26.53865,-50.396332,15.511817
1783968005.7371,11:40:05.737,16,false,0.694981,-0.285583,0.555603,0.356018,0.98732,-0.019532,-0.20264,-26.471799,-50.844758,15.710235
1783968005.7685,11:40:05.768,17,false,0.687784,-0.287903,0.556213,0.367004,0.968765,-0.05713,-0.204105,-26.486403,-51.293204,15.76918
1783968005.7998,11:40:05.799,18,false,0.683406,-0.289063,0.556702,0.373474,0.966812,-0.066407,-0.203616,-26.5145,-51.711759,15.852138
1783968005.8311,11:40:05.831,19,false,0.678845,-0.288696,0.5578,0.380371,0.974624,-0.08838,-0.213382,-26.524834,-52.103412,15.971663
1783968005.8623,11:40:05.862,20,false,0.677288,-0.289001,0.557739,0.382996,0.998062,-0.082033,-0.198734,-26.534135,-52.4559,15.899788
1783968005.8934,11:40:05.893,21,false,0.672966,-0.289734,0.557556,0.390259,1.006851,-0.062013,-0.215824,-26.617274,-52.89277,16.164086
1783968005.9246,11:40:05.924,22,false,0.670244,-0.289978,0.557312,0.395081,0.993668,-0.058595,-0.218265,-26.557515,-53.330814,16.267369
1783968005.9557,11:40:05.955,23,false,0.666355,-0.289978,0.556824,0.402283,0.972183,-0.072267,-0.226566,-26.488778,-53.530654,16.315462
1783968005.9868,11:40:05.986,24,false,0.66335,-0.290161,0.555603,0.408752,0.958022,-0.083497,-0.230472,-26.471776,-54.009587,16.493331
1783968006.0182,11:40:06.018,25,false,0.662525,-0.290222,0.555115,0.410706,0.971206,-0.089357,-0.221683,-26.561152,-54.395765,16.518828
1783968006.0495,11:40:06.049,26,false,0.660354,-0.291016,0.553467,0.415833,1.002457,-0.088869,-0.230961,-26.342513,-54.593786,16.467006
1783968006.0808,11:40:06.080,27,false,0.658849,-0.291992,0.55249,0.418823,1.000992,-0.08838,-0.229496,-26.145738,-54.966406,16.525044
1783968006.1122,11:40:06.112,28,false,0.65649,-0.293457,0.551453,0.422852,1.00734,-0.083497,-0.225589,-26.118178,-55.226994,16.502508
1783968006.1435,11:40:06.143,29,false,0.65467,-0.29425,0.55127,0.425354,1.005386,-0.081056,-0.231937,-26.153191,-55.551247,16.61681
1783968006.1747,11:40:06.174,30,false,0.652694,-0.294922,0.55127,0.427917,1.00441,-0.076661,-0.2168,-26.094978,-55.783259,16.734636
1783968006.2058,11:40:06.205,31,false,0.650042,-0.295288,0.551208,0.431763,0.983413,-0.107912,-0.2168,-25.982772,-55.977116,16.780865
1783968006.2369,11:40:06.236,0,false,0.648698,-0.295227,0.551147,0.433899,0.975601,-0.127443,-0.225589,-25.821971,-56.211402,16.777608
1783968006.2681,11:40:06.268,1,false,0.647616,-0.29541,0.550781,0.435852,0.973159,-0.124025,-0.227543,-25.602481,-56.377399,16.804585
1783968006.2992,11:40:06.299,2,false,0.64654,-0.296265,0.549988,0.437866,0.971695,-0.110353,-0.216312,-25.674109,-56.676334,16.798957
1783968006.3303,11:40:06.330,3,false,0.646278,-0.296997,0.549316,0.438599,0.985855,-0.100587,-0.215824,-25.693713,-56.840699,17.003245
1783968006.3615,11:40:06.361,4,false,0.645975,-0.298218,0.548279,0.439514,0.98732,-0.100587,-0.223148,-25.72631,-57.108258,17.022613
1783968006.3926,11:40:06.392,5,false,0.645756,-0.298645,0.547913,0.440002,0.985367,-0.091798,-0.225589,-25.591155,-57.184569,17.069951
1783968006.424,11:40:06.424,6,false,0.645218,-0.299927,0.546814,0.441284,0.978531,-0.099123,-0.226078,-25.678869,-57.342971,17.05274
1783968006.4553,11:40:06.455,7,false,0.644958,-0.30072,0.546143,0.441956,0.990738,-0.075685,-0.225589,-25.683043,-57.530396,17.246604
1783968006.4866,11:40:06.486,8,false,0.644385,-0.30188,0.545288,0.443054,0.985855,-0.087404,-0.224125,-25.6868,-57.624308,17.361266
1783968006.518,11:40:06.518,9,false,0.643899,-0.302551,0.545044,0.443604,0.983413,-0.088869,-0.221683,-25.749996,-57.753691,17.404646
1783968006.5491,11:40:06.549,10,false,0.643102,-0.30365,0.544678,0.444458,0.972671,-0.090333,-0.229007,-25.687242,-57.870135,17.36892
1783968006.5803,11:40:06.580,11,false,0.641897,-0.305786,0.544006,0.445557,0.975113,-0.085451,-0.217777,-25.570947,-57.959981,17.291904
1783968006.6114,11:40:06.611,12,false,0.641202,-0.307434,0.543396,0.446167,0.985855,-0.069825,-0.218265,-25.49619,-57.995981,17.342221
1783968006.6425,11:40:06.642,13,false,0.640542,-0.30896,0.542908,0.446655,0.982437,-0.087892,-0.21387,-25.533586,-57.908751,17.462275
1783968006.6737,11:40:06.673,14,false,0.639893,-0.310791,0.542175,0.447205,0.985367,-0.089845,-0.204593,-25.656965,-57.785382,17.435739
1783968006.7048,11:40:06.704,15,false,0.639469,-0.311829,0.541626,0.447754,0.976577,-0.084474,-0.2168,-25.573606,-57.868749,17.396903
1783968006.7359,11:40:06.735,16,false,0.638714,-0.313293,0.54071,0.448914,0.978531,-0.096681,-0.226078,-25.767752,-57.809196,17.272228
1783968006.7673,11:40:06.767,17,false,0.638588,-0.313904,0.5401,0.449402,0.977554,-0.085451,-0.21973,-25.718176,-57.755597,17.234789
1783968006.7986,11:40:06.798,18,false,0.638666,-0.314148,0.539612,0.449707,0.977554,-0.101564,-0.220706,-25.64365,-57.707359,17.231002
1783968006.83,11:40:06.830,19,false,0.63885,-0.314697,0.538818,0.450012,0.996597,-0.08838,-0.227543,-25.711161,-57.72376,17.317317
1783968006.8613,11:40:06.861,20,false,0.638948,-0.315125,0.538452,0.450012,1.001968,-0.081056,-0.222171,-25.697152,-57.783382,17.469769
1783968006.8926,11:40:06.892,21,false,0.638869,-0.315857,0.537964,0.450195,0.996597,-0.083986,-0.233402,-25.535005,-57.717411,17.472392
1783968006.924,11:40:06.924,22,false,0.638894,-0.316101,0.537842,0.450134,0.984878,-0.08838,-0.225589,-25.49375,-57.658037,17.654198
1783968006.9553,11:40:06.955,23,false,0.638803,-0.3172,0.537354,0.450073,0.974624,-0.079591,-0.225589,-25.381851,-57.67937,17.563608
1783968006.9867,11:40:06.986,24,false,0.638515,-0.31781,0.536926,0.450562,0.979019,-0.090822,-0.230472,-25.355912,-57.803247,17.482078
1783968007.0178,11:40:07.017,25,false,0.638351,-0.318237,0.53656,0.450928,0.988296,-0.076173,-0.229007,-25.422289,-57.750243,17.453562
1783968007.0489,11:40:07.048,26,false,0.63834,-0.318481,0.536377,0.450989,0.983902,-0.092775,-0.233402,-25.392305,-57.762356,17.457805
1783968007.0801,11:40:07.080,27,false,0.638052,-0.319092,0.536255,0.451111,0.979019,-0.092775,-0.238773,-25.350366,-57.713441,17.327039
1783968007.1112,11:40:07.111,28,false,0.638027,-0.32019,0.536194,0.450439,0.988785,-0.070314,-0.225101,-25.477113,-57.878772,17.40375
1783968007.1423,11:40:07.142,29,false,0.637963,-0.321533,0.536133,0.449646,0.992691,-0.065431,-0.228519,-25.41174,-57.848124,17.338206
1783968007.1737,11:40:07.173,30,false,0.63756,-0.323181,0.536133,0.449036,0.990249,-0.048829,-0.214359,-25.382811,-57.820541,17.309123
1783968007.205,11:40:07.205,31,false,0.636989,-0.325317,0.536438,0.447937,0.978531,-0.052735,-0.213382,-25.506314,-57.720946,17.357718
1783968007.2364,11:40:07.236,0,false,0.636511,-0.326538,0.536621,0.44751,0.987808,-0.054688,-0.195315,-25.617466,-57.436911,17.401453
1783968007.2677,11:40:07.267,1,false,0.635783,-0.328369,0.536621,0.447205,0.981949,-0.042481,-0.198734,-25.62778,-57.495311,17.50063
1783968007.299,11:40:07.299,2,false,0.635699,-0.328796,0.53656,0.447083,0.986343,-0.041505,-0.197757,-25.652017,-57.35347,17.559982
1783968007.3302,11:40:07.330,3,false,0.635414,-0.329712,0.536438,0.44696,0.980484,-0.059083,-0.192874,-25.643922,-57.330491,17.65826
1783968007.3613,11:40:07.361,4,false,0.63521,-0.329956,0.536377,0.447144,0.983902,-0.067872,-0.207034,-25.72636,-57.519163,17.686895
1783968007.3925,11:40:07.392,5,false,0.634807,-0.330383,0.536133,0.447693,0.981949,-0.053223,-0.199222,-25.830461,-57.569337,17.578082
1783968007.4236,11:40:07.423,6,false,0.634641,-0.33075,0.53595,0.447876,0.987808,-0.056153,-0.220706,-25.759661,-57.674309,17.629689
1783968007.4547,11:40:07.454,7,false,0.634598,-0.33075,0.53595,0.447937,0.983902,-0.051759,-0.208499,-25.636125,-57.529523,17.661181
1783968007.4859,11:40:07.485,8,false,0.634508,-0.331055,0.535767,0.448059,0.994644,-0.039063,-0.205081,-25.674481,-57.698292,17.659616
1783968007.517,11:40:07.517,9,false,0.634428,-0.331421,0.535583,0.44812,0.99855,-0.045899,-0.204593,-25.634232,-57.625876,17.688115
1783968007.5483,11:40:07.548,10,false,0.633771,-0.332214,0.535461,0.448608,0.994644,-0.045899,-0.193851,-25.5681,-57.560702,17.713765
1783968007.5797,11:40:07.579,11,false,0.63345,-0.332397,0.535522,0.448853,0.987808,-0.076661,-0.201175,-25.688028,-57.531953,17.841526
1783968007.611,11:40:07.611,12,false,0.633012,-0.332458,0.535645,0.44928,0.990738,-0.067384,-0.202152,-25.706239,-57.416356,17.836881
1783968007.6424,11:40:07.642,13,false,0.632459,-0.33252,0.535645,0.450012,0.984878,-0.07715,-0.204105,-25.857215,-57.402042,17.817746
1783968007.6737,11:40:07.673,14,false,0.63242,-0.332397,0.535767,0.450012,0.975601,-0.075685,-0.201175,-25.8286,-57.344297,17.815478
1783968007.705,11:40:07.705,15,false,0.6325,-0.332214,0.535889,0.44989,0.994156,-0.070802,-0.208011,-25.847708,-57.277373,17.828392
1783968007.7362,11:40:07.736,16,false,0.632917,-0.331604,0.536133,0.449463,0.98439,-0.059083,-0.21387,-25.999491,-57.381634,17.974598
1783968007.7673,11:40:07.767,17,false,0.633266,-0.331482,0.53595,0.44928,0.984878,-0.059571,-0.208988,-26.076279,-57.340884,17.866922
1783968007.7985,11:40:07.798,18,false,0.633745,-0.331177,0.535828,0.448975,0.979995,-0.056153,-0.208011,-25.980897,-57.319163,17.934506
1783968007.8296,11:40:07.829,19,false,0.633809,-0.331055,0.535828,0.448975,0.986343,-0.067384,-0.218753,-25.939914,-57.269707,17.890655
1783968007.8607,11:40:07.860,20,false,0.633839,-0.330566,0.535889,0.449219,0.98439,-0.06006,-0.212406,-25.977799,-57.225196,17.851189
1783968007.8919,11:40:07.891,21,false,0.633804,-0.330566,0.535828,0.449341,0.997574,-0.05713,-0.212894,-25.952079,-57.274859,17.860531
1783968007.9232,11:40:07.923,22,false,0.633734,-0.330566,0.535706,0.449585,0.996109,-0.070314,-0.215335,-25.884071,-57.349464,17.79417
1783968007.9545,11:40:07.954,23,false,0.633501,-0.330811,0.535522,0.449951,0.984878,-0.063478,-0.216312,-25.92754,-57.296977,17.824168
1783968007.9859,11:40:07.985,24,false,0.633533,-0.33075,0.535522,0.449951,0.993179,-0.066407,-0.215335,-25.99657,-57.429185,17.79135
1783968008.0172,11:40:08.017,25,false,0.633261,-0.330872,0.535461,0.450317,0.986831,-0.068849,-0.211917,-25.983927,-57.443496,17.687046
1783968008.0486,11:40:08.048,26,false,0.63336,-0.33075,0.535522,0.450195,0.980484,-0.067384,-0.204593,-25.942641,-57.486283,17.772617
1783968008.0799,11:40:08.079,27,false,0.633316,-0.33075,0.535522,0.450256,0.989761,-0.069825,-0.2168,-25.860623,-57.524791,17.87954
1783968008.1112,11:40:08.111,28,false,0.63334,-0.330688,0.535583,0.450195,0.996109,-0.069337,-0.21387,-25.92139,-57.365049,17.930908
1783968008.1424,11:40:08.142,29,false,0.63334,-0.330688,0.535583,0.450195,0.974624,-0.05713,-0.205081,-25.916266,-57.340911,17.767786
1783968008.1735,11:40:08.173,30,false,0.633143,-0.330994,0.535217,0.450684,0.991226,-0.049805,-0.213382,-25.777069,-57.408911,17.83033
1783968008.2047,11:40:08.204,31,false,0.633238,-0.330994,0.535156,0.450623,0.991226,-0.048829,-0.21387,-25.920961,-57.365433,17.81185
1783968008.2358,11:40:08.235,0,false,0.633151,-0.330994,0.535156,0.450745,0.988296,-0.059571,-0.207523,-25.856065,-57.43098,17.690542
1783968008.2669,11:40:08.266,1,false,0.632902,-0.330627,0.535522,0.450928,0.990738,-0.063478,-0.208011,-25.947196,-57.534834,17.790718
1783968008.2983,11:40:08.298,2,false,0.632725,-0.330383,0.535522,0.451355,0.98732,-0.061036,-0.20557,-25.804906,-57.583441,17.776199
1783968008.3296,11:40:08.329,3,false,0.632814,-0.329712,0.535522,0.451721,0.978042,-0.074708,-0.216312,-25.781522,-57.582326,17.778086
1783968008.3609,11:40:08.360,4,false,0.632894,-0.32959,0.5354,0.451843,0.983413,-0.083497,-0.223148,-25.790385,-57.581323,17.779785
1783968008.3923,11:40:08.392,5,false,0.633073,-0.329346,0.534668,0.452637,0.984878,-0.064942,-0.221195,-25.693684,-57.655188,17.706544
1783968008.4236,11:40:08.423,6,false,0.633168,-0.329468,0.534119,0.453064,0.988296,-0.065919,-0.231449,-25.651515,-57.766529,17.730351
1783968008.455,11:40:08.455,7,false,0.633059,-0.329712,0.53363,0.453613,0.979995,-0.067872,-0.220706,-25.733193,-57.657382,17.6471
1783968008.4861,11:40:08.486,8,false,0.632775,-0.330078,0.533325,0.454102,0.98732,-0.074708,-0.225589,-25.731935,-57.663827,17.572174
1783968008.5172,11:40:08.517,9,false,0.632744,-0.329956,0.533386,0.454163,0.992691,-0.084962,-0.220218,-25.745756,-57.579904,17.564556
1783968008.5484,11:40:08.548,10,false,0.632876,-0.329712,0.533691,0.453796,0.982925,-0.066896,-0.224125,-25.668472,-57.624004,17.572654
1783968008.5795,11:40:08.579,11,false,0.633052,-0.329651,0.533936,0.453308,0.982925,-0.073732,-0.218753,-25.628824,-57.588925,17.579942
1783968008.6107,11:40:08.610,12,false,0.633251,-0.329529,0.534241,0.452759,1.004898,-0.065431,-0.209476,-25.578187,-57.467631,17.571547
1783968008.6418,11:40:08.641,13,false,0.633263,-0.329468,0.534729,0.452209,0.979019,-0.065919,-0.215824,-25.727013,-57.508004,17.489222
1783968008.6731,11:40:08.673,14,false,0.633351,-0.329468,0.534729,0.452087,0.974624,-0.060548,-0.204593,-25.816096,-57.469571,17.4899
1783968008.7045,11:40:08.704,15,false,0.633362,-0.329529,0.534729,0.452026,0.989273,-0.075685,-0.208011,-25.971039,-57.509751,17.445648
1783968008.7358,11:40:08.735,16,false,0.633366,-0.329651,0.534546,0.452148,0.979019,-0.063966,-0.206058,-26.020765,-57.680497,17.540405
1783968008.7672,11:40:08.767,17,false,0.633072,-0.330017,0.533997,0.452942,0.967788,-0.062989,-0.2168,-26.005703,-57.669676,17.59578
1783968008.7985,11:40:08.798,18,false,0.633214,-0.329834,0.53363,0.453308,0.976577,-0.066896,-0.217288,-26.051963,-57.63003,17.675524
1783968008.8298,11:40:08.829,19,false,0.633585,-0.329407,0.533142,0.453674,0.993668,-0.065919,-0.220706,-26.153412,-57.75884,17.762248
1783968008.861,11:40:08.861,20,false,0.633474,-0.329163,0.532593,0.454651,0.989761,-0.052247,-0.220706,-26.199854,-57.740185,17.586084
1783968008.8921,11:40:08.892,21,false,0.633277,-0.329163,0.53241,0.455139,0.991226,-0.086915,-0.229496,-26.15193,-57.768257,17.51726
1783968008.9232,11:40:08.923,22,false,0.63287,-0.328918,0.532104,0.456238,0.986831,-0.083497,-0.228519,-26.258336,-57.763614,17.42541
1783968008.9544,11:40:08.954,23,false,0.632701,-0.328918,0.532043,0.456543,0.986343,-0.09424,-0.230961,-26.234471,-57.609897,17.47733
1783968008.9855,11:40:08.985,24,false,0.632724,-0.329102,0.532166,0.456238,0.980972,-0.070314,-0.223636,-26.212992,-57.62109,17.344612
1783968009.0169,11:40:09.016,25,false,0.632748,-0.32959,0.532043,0.455994,0.989273,-0.07422,-0.226566,-26.178707,-57.571349,17.35975
1783968009.0482,11:40:09.048,26,false,0.63276,-0.329651,0.532043,0.455933,0.973648,-0.076173,-0.229007,-26.162805,-57.616304,17.164021
1783968009.0795,11:40:09.079,27,false,0.632907,-0.329468,0.532349,0.455505,0.994644,-0.06836,-0.218265,-26.208308,-57.567041,17.301895
1783968009.1109,11:40:09.110,28,false,0.632989,-0.329224,0.532715,0.455139,0.997574,-0.075196,-0.217777,-26.189446,-57.537659,17.336259
1783968009.1422,11:40:09.142,29,false,0.632904,-0.328918,0.533264,0.454834,0.976089,-0.070802,-0.207523,-26.247239,-57.585983,17.367186
1783968009.1736,11:40:09.173,30,false,0.63293,-0.328186,0.533997,0.454468,0.973648,-0.071778,-0.217288,-26.20953,-57.689291,17.335206
1783968009.2049,11:40:09.204,31,false,0.632842,-0.327759,0.534363,0.454468,0.977066,-0.080568,-0.21973,-26.085868,-57.797221,17.470915
1783968009.2362,11:40:09.236,0,false,0.633298,-0.326843,0.534851,0.453918,0.984878,-0.094728,-0.226078,-26.034388,-57.655097,17.428562
1783968009.2674,11:40:09.267,1,false,0.633369,-0.32666,0.535034,0.453735,0.996109,-0.083009,-0.228519,-26.017964,-57.676724,17.315674
1783968009.2985,11:40:09.298,2,false,0.633127,-0.326721,0.535645,0.453308,1.003433,-0.077638,-0.217288,-25.853644,-57.666281,17.363614
1783968009.3296,11:40:09.329,3,false,0.632996,-0.326904,0.536255,0.452637,1.000992,-0.058595,-0.217777,-25.930063,-57.61202,17.40676
1783968009.3608,11:40:09.360,4,false,0.632459,-0.327759,0.537292,0.451538,0.993668,-0.06006,-0.207034,-25.968933,-57.682816,17.445591
1783968009.3919,11:40:09.391,5,false,0.631585,-0.329041,0.537537,0.451538,0.982925,-0.065919,-0.198245,-25.854377,-57.746533,17.555308
1783968009.4231,11:40:09.423,6,false,0.630773,-0.330261,0.537537,0.451782,0.997574,-0.065431,-0.193851,-25.751277,-57.908555,17.609192
1783968009.4544,11:40:09.454,7,false,0.630412,-0.331116,0.537537,0.45166,0.993668,-0.064942,-0.200198,-25.927656,-57.785205,17.687595
1783968009.4857,11:40:09.485,8,false,0.630551,-0.331299,0.537415,0.451477,1.000015,-0.069825,-0.204105,-26.05649,-57.853637,17.683389
1783968009.5171,11:40:09.517,9,false,0.630615,-0.33136,0.537354,0.451416,0.98146,-0.064942,-0.200687,-25.948132,-57.870363,17.634742
1783968009.5484,11:40:09.548,10,false,0.631039,-0.330933,0.53717,0.451355,0.991226,-0.078126,-0.210941,-25.940334,-57.975141,17.501237
1783968009.5796,11:40:09.579,11,false,0.631314,-0.330688,0.537048,0.451294,0.982925,-0.063478,-0.20264,-25.978176,-57.934856,17.455851
1783968009.6109,11:40:09.610,12,false,0.631901,-0.330444,0.53656,0.451233,0.975113,-0.059571,-0.209476,-26.012235,-57.973368,17.59445
1783968009.642,11:40:09.642,13,false,0.632553,-0.330994,0.5354,0.451294,0.969253,-0.066896,-0.2168,-26.057841,-57.903353,17.524789
1783968009.6732,11:40:09.673,14,false,0.633442,-0.331909,0.533936,0.451111,1.018082,-0.087892,-0.23682,-26.128795,-57.959969,17.671448
1783968009.7043,11:40:09.704,15,false,0.633955,-0.33252,0.533203,0.450806,0.999039,-0.070314,-0.216312,-26.222561,-57.846432,17.68381
1783968009.7354,11:40:09.735,16,false,0.634304,-0.33374,0.532593,0.450134,1.000015,-0.065431,-0.215824,-26.232181,-57.744249,17.620167
1783968009.7666,11:40:09.766,17,false,0.634437,-0.335144,0.532532,0.448975,1.000504,-0.074708,-0.209964,-26.2857,-57.697145,17.652611
1783968009.7979,11:40:09.797,18,false,0.634246,-0.335266,0.532837,0.448792,0.992691,-0.067384,-0.206058,-26.289006,-57.60989,17.56218
1783968009.8293,11:40:09.829,19,false,0.633449,-0.3349,0.534424,0.448303,0.986343,-0.041016,-0.189944,-26.306936,-57.576223,17.39107
1783968009.8606,11:40:09.860,20,false,0.632978,-0.3349,0.535339,0.447876,0.980484,-0.034668,-0.192874,-26.27821,-57.545922,17.446424
1783968009.8919,11:40:09.891,21,false,0.632443,-0.335876,0.535461,0.447754,0.971206,-0.0542,-0.177737,-26.282266,-57.548558,17.511196
1783968009.9233,11:40:09.923,22,false,0.632529,-0.33667,0.534912,0.447693,0.982437,-0.062989,-0.187991,-26.256007,-57.565885,17.554537
1783968009.9544,11:40:09.954,23,false,0.632882,-0.337524,0.534058,0.447571,0.997574,-0.044434,-0.20557,-26.277237,-57.611387,17.638406
1783968009.9856,11:40:09.985,24,false,0.6339,-0.338928,0.532471,0.44696,0.986831,-0.064942,-0.215824,-26.251481,-57.517755,17.743796
1783968010.0167,11:40:10.016,25,false,0.635098,-0.339661,0.531189,0.446228,0.980972,-0.048829,-0.231937,-26.213348,-57.403577,17.748923
1783968010.0478,11:40:10.047,26,false,0.636702,-0.340576,0.529602,0.445129,1.018082,-0.076173,-0.225589,-26.14912,-57.151279,17.753538
1783968010.079,11:40:10.079,27,false,0.639169,-0.342285,0.527161,0.443176,1.056657,-0.073243,-0.235355,-26.210946,-57.163473,17.667968
1783968010.1101,11:40:10.110,28,false,0.640615,-0.344177,0.525452,0.44165,1.059586,-0.07715,-0.253422,-26.176866,-57.084724,17.576002
1783968010.1412,11:40:10.141,29,false,0.640946,-0.346191,0.524902,0.440247,1.070817,-0.066407,-0.250492,-26.310686,-57.043757,17.582955
1783968010.1724,11:40:10.172,30,false,0.640647,-0.346375,0.525146,0.440247,1.013687,-0.070802,-0.227543,-26.281586,-56.857349,17.61912
1783968010.2037,11:40:10.203,31,false,0.639673,-0.347046,0.525635,0.440552,0.96144,-0.100587,-0.211917,-26.330165,-56.719489,17.621762
1783968010.2351,11:40:10.235,0,false,0.639689,-0.347168,0.52533,0.440796,0.952163,-0.100587,-0.219242,-26.433701,-56.580462,17.534416
1783968010.2664,11:40:10.266,1,false,0.641025,-0.347595,0.523621,0.440552,0.940932,-0.087892,-0.220218,-26.496976,-56.35066,17.485712
1783968010.2977,11:40:10.297,2,false,0.643345,-0.347717,0.520996,0.440186,0.946304,-0.050782,-0.230472,-26.479155,-56.203654,17.411971
1783968010.3289,11:40:10.328,3,false,0.644351,-0.347961,0.519897,0.439819,0.981949,-0.016602,-0.241703,-26.537885,-56.11621,17.300743
1783968010.3602,11:40:10.360,4,false,0.646809,-0.349487,0.517517,0.437805,1.031266,0.009277,-0.229007,-26.590742,-55.932833,17.245499
1783968010.3916,11:40:10.391,5,false,0.647019,-0.350769,0.517212,0.436829,1.019059,0.01709,-0.212894,-26.683174,-55.782748,17.135964
1783968010.4227,11:40:10.422,6,false,0.645961,-0.352173,0.51825,0.436035,1.027359,0.002441,-0.208499,-26.601871,-55.737395,17.127105
1783968010.4538,11:40:10.453,7,false,0.644343,-0.3526,0.519714,0.43634,1.013687,0.011231,-0.201175,-26.64833,-55.621807,17.22381
1783968010.485,11:40:10.485,8,false,0.642327,-0.353088,0.521362,0.436951,1.006363,0.007813,-0.197269,-26.615373,-55.44301,17.251028
1783968010.5161,11:40:10.516,9,false,0.637989,-0.354309,0.523804,0.439392,0.9673,0.027832,-0.195315,-26.630573,-55.371815,17.365248
1783968010.5474,11:40:10.547,10,false,0.63552,-0.356018,0.524414,0.440857,0.946304,0.020996,-0.179202,-26.778838,-55.292785,17.303553
1783968010.5788,11:40:10.578,11,false,0.63388,-0.359436,0.523193,0.441895,0.922377,0.019532,-0.175784,-26.807599,-55.221659,17.248028
1783968010.6101,11:40:10.610,12,false,0.634198,-0.366272,0.51825,0.44165,0.925307,0.057618,-0.182132,-26.908254,-55.052968,17.227963
1783968010.6415,11:40:10.641,13,false,0.635828,-0.371643,0.513184,0.440735,0.930678,0.065431,-0.200687,-26.953982,-54.781516,17.209905
1783968010.6728,11:40:10.672,14,false,0.639147,-0.379822,0.504517,0.438965,0.971695,0.08838,-0.212406,-27.01009,-54.671793,17.253468
1783968010.7041,11:40:10.704,15,false,0.640096,-0.382507,0.501648,0.438538,0.990249,0.138674,-0.200687,-26.970865,-54.363689,17.15809
1783968010.7353,11:40:10.735,16,false,0.641444,-0.391113,0.493652,0.438049,1.001968,0.139651,-0.229984,-26.830885,-54.086396,17.19188
1783968010.7664,11:40:10.766,17,false,0.641638,-0.396545,0.489319,0.437744,1.002457,0.146487,-0.218753,-26.779673,-53.881693,17.147522
1783968010.7976,11:40:10.797,18,false,0.640567,-0.405029,0.483521,0.437988,0.991714,0.1626,-0.197757,-26.778443,-53.562876,16.943108
1783968010.8287,11:40:10.828,19,false,0.639357,-0.410339,0.480469,0.438171,1.000015,0.149416,-0.180667,-26.732475,-53.186218,16.818951
1783968010.8598,11:40:10.859,20,false,0.63806,-0.414917,0.478088,0.438354,0.980972,0.144045,-0.17969,-26.810734,-52.78741,16.677301
1783968010.891,11:40:10.891,21,false,0.636942,-0.420044,0.475037,0.438416,0.957046,0.16553,-0.167483,-26.761537,-52.45839,16.579724
1783968010.9221,11:40:10.922,22,false,0.636772,-0.422119,0.473083,0.438782,0.962905,0.154788,-0.177249,-26.866798,-52.012734,16.342367
1783968010.9534,11:40:10.953,23,false,0.636694,-0.422913,0.471741,0.439575,0.991226,0.138186,-0.178225,-26.856856,-51.731275,16.293237
1783968010.9848,11:40:10.984,24,false,0.636093,-0.422607,0.470886,0.44165,0.990249,0.13135,-0.189944,-26.907723,-51.463007,16.12939
1783968011.0161,11:40:11.016,25,false,0.635538,-0.421936,0.470459,0.443542,0.986831,0.134279,-0.204105,-26.923596,-51.221567,15.862297
1783968011.0475,11:40:11.047,26,false,0.635634,-0.420105,0.469543,0.446106,0.992691,0.08838,-0.232914,-26.967789,-50.899593,15.666774
1783968011.0786,11:40:11.078,27,false,0.63624,-0.418884,0.469116,0.446838,0.995132,0.086915,-0.234379,-26.947748,-50.594863,15.535666
1783968011.1098,11:40:11.109,28,false,0.63657,-0.418457,0.468933,0.44696,0.98146,0.113283,-0.223148,-27.064296,-50.33556,15.402714
1783968011.141,11:40:11.141,29,false,0.636648,-0.419006,0.468628,0.446655,0.984878,0.099123,-0.216312,-27.094419,-50.176956,15.25315
1783968011.1721,11:40:11.172,30,false,0.636233,-0.419922,0.46814,0.446899,0.983902,0.09131,-0.220218,-27.031807,-49.899628,15.103588
1783968011.2033,11:40:11.203,31,false,0.636168,-0.421509,0.466858,0.446838,0.973648,0.086427,-0.217777,-26.960502,-49.635079,15.163383
1783968011.2344,11:40:11.234,0,false,0.63617,-0.422119,0.466187,0.44696,0.997574,0.069337,-0.228519,-27.060821,-49.561478,14.903167
1783968011.2655,11:40:11.265,1,false,0.636769,-0.422607,0.465393,0.446472,0.982925,0.086427,-0.223636,-27.091291,-49.360651,14.698881
1783968011.2967,11:40:11.296,2,false,0.637432,-0.421631,0.466248,0.445557,1.012222,0.094728,-0.223636,-26.939269,-49.075231,14.6197
1783968011.328,11:40:11.328,3,false,0.637773,-0.419373,0.468628,0.444702,0.994644,0.123537,-0.214847,-26.847311,-48.833306,14.593299
1783968011.3593,11:40:11.359,4,false,0.637872,-0.417969,0.470093,0.444336,0.979507,0.124514,-0.215824,-26.899133,-48.824928,14.449907
1783968011.3907,11:40:11.390,5,false,0.637825,-0.41687,0.47113,0.444336,0.970718,0.127443,-0.223636,-26.945772,-48.817388,14.350762
1783968011.422,11:40:11.422,6,false,0.637087,-0.415527,0.472046,0.445679,0.970718,0.085939,-0.230961,-27.03261,-48.76574,14.306393
1783968011.4534,11:40:11.453,7,false,0.636548,-0.414673,0.472717,0.446533,0.996597,0.09424,-0.220706,-27.125717,-48.674395,14.251507
1783968011.4847,11:40:11.484,8,false,0.636159,-0.414124,0.473145,0.447144,0.979019,0.099611,-0.218265,-27.134744,-48.666954,14.157248
1783968011.516,11:40:11.516,9,false,0.635301,-0.415283,0.472473,0.447998,0.990738,0.124514,-0.205081,-27.098008,-48.540626,14.042508
1783968011.5474,11:40:11.547,10,false,0.633723,-0.418579,0.47052,0.449219,0.976089,0.14551,-0.191409,-26.975221,-48.411978,13.879426
1783968011.5785,11:40:11.578,11,false,0.628395,-0.43219,0.460327,0.454346,0.939467,0.265141,-0.14551,-26.984345,-48.266286,13.88219
1783968011.6097,11:40:11.609,12,false,0.625623,-0.439453,0.454041,0.45752,0.937514,0.325689,-0.156741,-26.962648,-48.000579,13.824863
1783968011.6408,11:40:11.640,13,false,0.613503,-0.467041,0.427185,0.472229,0.976089,0.324712,-0.23682,-26.793582,-47.656766,13.81813
1783968011.6719,11:40:11.671,14,false,0.600272,-0.487671,0.405518,0.487244,1.022477,0.320806,-0.266606,-26.566654,-47.227703,13.587763
1783968011.7033,11:40:11.703,15,false,0.571487,-0.520264,0.368408,0.516724,0.989761,0.321782,-0.292485,-26.497003,-46.452747,13.544925
1783968011.7346,11:40:11.734,16,false,0.532643,-0.550903,0.331726,0.550232,1.013199,0.308598,-0.31104,-26.329641,-45.57584,13.297017
1783968011.7659,11:40:11.765,17,false,0.518389,-0.559448,0.320374,0.561829,0.920912,0.190433,-0.310552,-26.253783,-44.562317,13.208484
1783968011.7973,11:40:11.797,18,false,0.477248,-0.580139,0.28833,0.59375,0.900893,0.057618,-0.27393,-26.21542,-43.39593,13.098897
1783968011.8285,11:40:11.828,19,false,0.454007,-0.588684,0.270203,0.611816,0.922866,-0.004395,-0.250492,-25.971538,-42.37609,13.04513
1783968011.8597,11:40:11.859,20,false,0.428357,-0.591736,0.25293,0.634338,0.968276,-0.083986,-0.248539,-25.811861,-41.353557,13.026647
1783968011.891,11:40:11.891,21,false,0.418219,-0.588501,0.248047,0.645935,1.001968,-0.028809,-0.277836,-25.832643,-40.388416,13.129643
1783968011.9223,11:40:11.922,22,false,0.412828,-0.584351,0.246094,0.65387,1.00441,0.026856,-0.271,-25.612086,-39.489881,13.102709
1783968011.9535,11:40:11.953,23,false,0.409268,-0.579407,0.244812,0.66095,0.968765,0.107424,-0.285161,-25.368723,-38.755969,12.899023
1783968011.9846,11:40:11.984,24,false,0.40988,-0.576111,0.245789,0.663086,0.982437,0.116701,-0.285161,-25.28428,-38.050586,12.805428
1783968012.0158,11:40:12.015,25,false,0.41863,-0.569702,0.254211,0.659973,0.979019,0.12842,-0.277348,-25.118559,-37.430696,12.691285
1783968012.0469,11:40:12.046,26,false,0.431385,-0.560303,0.267029,0.654724,0.975601,0.126467,-0.257816,-24.909595,-36.962517,12.439017
1783968012.0782,11:40:12.078,27,false,0.440213,-0.553955,0.275574,0.650696,0.971206,0.110842,-0.258305,-24.826204,-36.301896,12.331608
1783968012.1096,11:40:12.109,28,false,0.453819,-0.543884,0.289551,0.643738,0.999527,0.096193,-0.275883,-24.70629,-35.856874,12.205031
1783968012.1409,11:40:12.140,29,false,0.458408,-0.540588,0.294678,0.64093,1.028824,0.096681,-0.279301,-24.523599,-35.486263,12.270558
1783968012.1722,11:40:12.172,30,false,0.470775,-0.532288,0.310425,0.631409,0.996597,0.097658,-0.250004,-24.344223,-35.212528,12.120179
1783968012.2036,11:40:12.203,31,false,0.479318,-0.52771,0.320313,0.62384,0.97023,0.089845,-0.247562,-24.437,-34.891397,12.029699
1783968012.2347,11:40:12.234,0,false,0.491498,-0.521973,0.333252,0.612305,0.971695,0.085451,-0.234379,-24.475638,-34.811733,11.933314
1783968012.2659,11:40:12.265,1,false,0.499882,-0.517944,0.341125,0.604553,0.969741,0.098634,-0.225589,-24.345919,-34.740036,11.771797
1783968012.297,11:40:12.297,2,false,0.508416,-0.513428,0.348694,0.596924,0.96437,0.099611,-0.234867,-24.259081,-34.511016,11.790925
1783968012.3281,11:40:12.328,3,false,0.521322,-0.505859,0.359375,0.585815,0.980484,0.120119,-0.229496,-24.180926,-34.304898,11.733371
1783968012.3593,11:40:12.359,4,false,0.52968,-0.500732,0.365845,0.578674,0.973648,0.118166,-0.231937,-24.080678,-34.059576,11.412402
1783968012.3904,11:40:12.390,5,false,0.537841,-0.495483,0.372253,0.571533,0.99855,0.12549,-0.232914,-24.095133,-34.078048,11.347839
1783968012.4216,11:40:12.421,6,false,0.548906,-0.487732,0.382446,0.560852,0.979995,0.117678,-0.224125,-24.167957,-33.930181,11.319639
1783968012.4529,11:40:12.452,7,false,0.555893,-0.481995,0.389526,0.554016,0.9673,0.126955,-0.214847,-24.248453,-33.9915,11.264352
1783968012.4842,11:40:12.484,8,false,0.565367,-0.47345,0.399414,0.544678,1.021012,0.100587,-0.237797,-24.171361,-34.01678,11.184686
1783968012.5156,11:40:12.515,9,false,0.570974,-0.467468,0.405884,0.539185,0.972671,0.104005,-0.235355,-24.206655,-34.069439,11.083078
1783968012.5469,11:40:12.546,10,false,0.576571,-0.461548,0.411804,0.533813,0.968765,0.072267,-0.23389,-24.133742,-34.311233,10.872001
1783968012.5782,11:40:12.578,11,false,0.585766,-0.45282,0.419128,0.525513,0.963882,0.058595,-0.249516,-24.098029,-34.379308,10.83157
1783968012.6094,11:40:12.609,12,false,0.592443,-0.447449,0.423401,0.519165,0.979995,0.076661,-0.245609,-24.050933,-34.560207,10.810135
1783968012.6405,11:40:12.640,13,false,0.602732,-0.440735,0.429138,0.50824,0.985367,0.126955,-0.242679,-23.993593,-34.603385,10.775891
1783968012.6719,11:40:12.671,14,false,0.606159,-0.438721,0.430908,0.504395,0.98146,0.095216,-0.252445,-24.106479,-34.657199,10.730117
1783968012.703,11:40:12.703,15,false,0.615876,-0.432617,0.435852,0.49353,0.983413,0.083497,-0.258793,-24.193123,-34.690678,10.599197
1783968012.7341,11:40:12.734,16,false,0.622061,-0.427856,0.439575,0.486572,0.983413,0.12842,-0.273442,-24.211286,-34.735763,10.496323
1783968012.7653,11:40:12.765,17,false,0.630264,-0.421082,0.445557,0.476379,0.98439,0.129885,-0.260258,-24.197726,-35.000647,10.433644
1783968012.7964,11:40:12.796,18,false,0.634918,-0.416199,0.450317,0.469971,0.998062,0.110353,-0.271,-24.140661,-34.984828,10.347326
1783968012.8278,11:40:12.827,19,false,0.638711,-0.410889,0.455811,0.464172,1.000015,0.098634,-0.275883,-24.134163,-35.179944,10.269639
1783968012.8591,11:40:12.859,20,false,0.642718,-0.402222,0.465271,0.456787,0.970718,0.088869,-0.247074,-24.143269,-35.415364,10.184767
1783968012.8904,11:40:12.890,21,false,0.644845,-0.395935,0.471497,0.452881,0.989273,0.062501,-0.254887,-24.106603,-35.522565,10.063521
1783968012.9218,11:40:12.921,22,false,0.64589,-0.390259,0.477966,0.449524,1.016129,0.050294,-0.265629,-24.05865,-35.813445,9.939446
1783968012.9531,11:40:12.953,23,false,0.64634,-0.38092,0.48877,0.445251,0.9673,0.007324,-0.257328,-24.179984,-36.060284,9.917501
1783968012.9845,11:40:12.984,24,false,0.647182,-0.374268,0.4953,0.442444,0.963882,0.021973,-0.251957,-24.124692,-36.446931,9.957566
1783968013.0158,11:40:13.015,25,false,0.648467,-0.365723,0.503357,0.438599,0.98146,0.050782,-0.241703,-24.194561,-36.750052,10.023532
1783968013.0469,11:40:13.046,26,false,0.648703,-0.363159,0.505859,0.4375,1.000504,0.007324,-0.239261,-24.332212,-37.217261,10.082901
1783968013.0781,11:40:13.078,27,false,0.648799,-0.356201,0.513,0.434753,1.000015,-0.012207,-0.220218,-24.471051,-37.682611,10.046611
1783968013.1092,11:40:13.109,28,false,0.648364,-0.352417,0.517334,0.43335,0.994156,-0.010254,-0.221683,-24.461422,-38.206102,9.998996
1783968013.1403,11:40:13.140,29,false,0.647938,-0.348328,0.522095,0.43158,0.976089,-0.001465,-0.202152,-24.527525,-38.73706,10.165496
1783968013.1715,11:40:13.171,30,false,0.648043,-0.345825,0.52533,0.429504,0.988785,0.001953,-0.207523,-24.661787,-39.259783,10.210669
1783968013.2028,11:40:13.202,31,false,0.648104,-0.345337,0.526123,0.428833,0.972183,-0.018067,-0.211429,-24.842439,-39.640511,10.236371
1783968013.2342,11:40:13.234,0,false,0.64888,-0.343018,0.528564,0.426514,0.979019,0.003418,-0.224613,-24.990071,-39.923351,10.349226
1783968013.2655,11:40:13.265,1,false,0.649874,-0.34137,0.530029,0.4245,0.983413,0.012696,-0.221683,-25.063124,-40.26763,10.465749
1783968013.2968,11:40:13.296,2,false,0.650971,-0.338867,0.532959,0.421143,0.988296,0.013672,-0.240726,-25.383088,-40.65225,10.495851
1783968013.3282,11:40:13.328,3,false,0.651054,-0.337158,0.535522,0.419128,1.009293,-0.011719,-0.225589,-25.431794,-40.938593,10.478081
1783968013.3593,11:40:13.359,4,false,0.651188,-0.334839,0.538757,0.416626,0.998062,-0.019043,-0.209964,-25.550398,-41.166394,10.641534
1783968013.3905,11:40:13.390,5,false,0.651115,-0.33197,0.543884,0.412354,1.005386,-0.03711,-0.183108,-25.507604,-41.371415,10.683965
1783968013.4216,11:40:13.421,6,false,0.651536,-0.329895,0.547668,0.408325,0.993179,-0.027832,-0.172854,-25.58872,-41.66061,10.931506
1783968013.4527,11:40:13.452,7,false,0.652131,-0.328003,0.551208,0.404114,0.970718,-0.029297,-0.149905,-25.616862,-42.190056,11.004755
1783968013.4839,11:40:13.483,8,false,0.654441,-0.323914,0.555359,0.397949,0.986343,-0.001465,-0.144045,-25.64219,-42.472156,11.19031
1783968013.515,11:40:13.515,9,false,0.656749,-0.320801,0.557007,0.394348,0.9673,-0.010742,-0.153811,-25.784617,-42.696139,11.357309
1783968013.5461,11:40:13.546,10,false,0.661877,-0.315125,0.558167,0.388672,0.968765,-0.058106,-0.166506,-25.643631,-43.002401,11.507609
1783968013.5773,11:40:13.577,11,false,0.664163,-0.312683,0.55835,0.386475,0.979019,-0.111818,-0.183597,-25.681237,-43.337852,11.583063
1783968013.6086,11:40:13.608,12,false,0.673106,-0.30426,0.55835,0.377625,0.979019,-0.049317,-0.184085,-25.610404,-43.744434,11.680879
1783968013.64,11:40:13.640,13,false,0.68088,-0.299988,0.55719,0.368713,0.956069,-0.037598,-0.180179,-25.621425,-44.035589,11.888545
1783968013.6713,11:40:13.671,14,false,0.694391,-0.296631,0.55249,0.352966,0.957046,0.06836,-0.200198,-25.706112,-44.372398,11.925905
1783968013.7026,11:40:13.702,15,false,0.703346,-0.296204,0.547791,0.342773,0.994156,0.156252,-0.212406,-25.617839,-44.585803,12.049253
1783968013.7338,11:40:13.733,16,false,0.710915,-0.295837,0.54303,0.334961,1.002945,0.154299,-0.224125,-25.643069,-44.777867,11.98082
1783968013.7649,11:40:13.764,17,false,0.719406,-0.295044,0.5354,0.329773,0.962905,0.170901,-0.263676,-25.501285,-45.115218,11.829506
1783968013.7961,11:40:13.796,18,false,0.724286,-0.293518,0.530273,0.328735,0.920912,0.154788,-0.281254,-25.523217,-45.314156,11.902679
1783968013.8272,11:40:13.827,19,false,0.728949,-0.291748,0.525024,0.32843,0.938979,0.192874,-0.356451,-25.468187,-45.4932,11.908718
1783968013.8583,11:40:13.858,20,false,0.735303,-0.289368,0.518005,0.327515,0.972183,0.207034,-0.414557,-25.373798,-45.684248,11.794523
1783968013.8895,11:40:13.889,21,false,0.738061,-0.28772,0.514954,0.327576,0.98732,0.191409,-0.423346,-25.214079,-45.826283,11.58707
1783968013.9208,11:40:13.920,22,false,0.738896,-0.287659,0.513672,0.327759,0.940932,0.183108,-0.343755,-25.115194,-45.984023,11.445224
1783968013.9521,11:40:13.952,23,false,0.738684,-0.288086,0.513855,0.327576,0.925307,0.164065,-0.329595,-25.04115,-46.260573,11.332517
1783968013.9835,11:40:13.983,24,false,0.737772,-0.290649,0.513916,0.327271,0.885756,0.14844,-0.302251,-25.064234,-46.524422,11.275942
1783968014.0148,11:40:14.014,25,false,0.737616,-0.293152,0.513184,0.326538,0.955581,0.132326,-0.300298,-24.980333,-46.612347,11.269886
1783968014.0462,11:40:14.046,26,false,0.737106,-0.293762,0.513062,0.327332,0.931167,0.124025,-0.297368,-24.964638,-46.751296,11.354158
1783968014.0775,11:40:14.077,27,false,0.736937,-0.293762,0.512329,0.328857,0.943862,0.119631,-0.29688,-24.950512,-46.876349,11.355235
1783968014.1088,11:40:14.108,28,false,0.736858,-0.292908,0.512146,0.330078,1.03859,0.067872,-0.332036,-25.087337,-47.093574,11.251526
1783968014.14,11:40:14.140,29,false,0.735223,-0.286926,0.51355,0.336731,1.053239,0.037598,-0.329595,-25.090848,-47.289077,11.367542
1783968014.1711,11:40:14.171,30,false,0.732491,-0.282043,0.516235,0.342651,1.043473,0.047364,-0.317876,-25.004286,-47.599614,11.382234
1783968014.2023,11:40:14.202,31,false,0.726433,-0.276611,0.521301,0.352173,1.001968,0.018067,-0.312505,-25.016103,-47.96882,11.41041
1783968014.2334,11:40:14.233,0,false,0.721991,-0.274597,0.524536,0.358032,0.993668,-0.016602,-0.309575,-24.99683,-48.480552,11.555399
1783968014.2645,11:40:14.264,1,false,0.719451,-0.271057,0.528931,0.359375,0.987808,-0.025391,-0.290043,-24.904715,-48.836433,11.611121
1783968014.2957,11:40:14.295,2,false,0.713182,-0.271484,0.532837,0.365723,0.952651,-0.033692,-0.25977,-24.896582,-49.336173,11.736039
1783968014.3268,11:40:14.326,3,false,0.711459,-0.270081,0.536011,0.365479,0.953628,-0.02002,-0.244144,-24.934123,-49.770985,11.893327
1783968014.3581,11:40:14.358,4,false,0.709794,-0.26947,0.538147,0.366028,0.966812,-0.020996,-0.249516,-25.027725,-50.147361,11.990025
1783968014.3895,11:40:14.389,5,false,0.705234,-0.271301,0.539246,0.371826,0.968765,-0.015625,-0.249027,-24.902613,-50.650593,12.196683
1783968014.4208,11:40:14.420,6,false,0.702686,-0.271851,0.539673,0.37561,0.962905,-0.012696,-0.254887,-24.775059,-50.968916,12.322861
1783968014.4522,11:40:14.452,7,false,0.700086,-0.270203,0.541016,0.3797,0.973648,-0.028321,-0.268559,-24.735029,-51.404946,12.51119
1783968014.4833,11:40:14.483,8,false,0.698709,-0.270081,0.541138,0.382141,0.9673,-0.061036,-0.25684,-24.699002,-51.872142,12.605916
1783968014.5144,11:40:14.514,9,false,0.694884,-0.26886,0.541931,0.388794,0.924331,-0.071778,-0.252934,-24.606763,-52.158034,12.825755
1783968014.5456,11:40:14.545,10,false,0.69204,-0.26947,0.542053,0.39325,0.940444,-0.054688,-0.228031,-24.658332,-52.579829,12.963794
1783968014.5767,11:40:14.576,11,false,0.687617,-0.2724,0.542114,0.398865,0.975601,-0.061036,-0.238773,-24.68979,-52.94449,13.147845
1783968014.6079,11:40:14.607,12,false,0.684382,-0.273438,0.54248,0.403198,1.003433,-0.099611,-0.260746,-24.703149,-53.257732,13.328445
1783968014.639,11:40:14.639,13,false,0.681031,-0.273682,0.542969,0.40802,1.028336,-0.107912,-0.273442,-24.730126,-53.629372,13.505938
1783968014.6701,11:40:14.670,14,false,0.675948,-0.273438,0.544495,0.414551,1.002457,-0.109865,-0.254398,-24.754405,-53.81431,13.635775
1783968014.7013,11:40:14.701,15,false,0.672519,-0.273621,0.545471,0.418701,0.994156,-0.132326,-0.254887,-24.806163,-54.1602,13.752628
1783968014.7326,11:40:14.732,16,false,0.668033,-0.274536,0.546753,0.423584,0.98732,-0.116213,-0.245121,-24.837792,-54.501409,13.842841
1783968014.7639,11:40:14.763,17,false,0.664967,-0.275818,0.547424,0.426697,0.967788,-0.119142,-0.243656,-24.806443,-54.718774,13.938988
1783968014.7953,11:40:14.795,18,false,0.662301,-0.277161,0.547974,0.42926,0.95021,-0.112306,-0.239261,-24.838044,-54.959264,14.040473
1783968014.8266,11:40:14.826,19,false,0.658907,-0.279297,0.54834,0.432617,0.963882,-0.111818,-0.231937,-24.911347,-55.145798,14.206579
1783968014.858,11:40:14.858,20,false,0.656626,-0.28064,0.548218,0.435364,0.977554,-0.119142,-0.239261,-24.767965,-55.358539,14.371028
1783968014.8891,11:40:14.889,21,false,0.654734,-0.281616,0.547791,0.43811,0.985367,-0.135256,-0.246098,-24.773506,-55.714499,14.459217
1783968014.9202,11:40:14.920,22,false,0.652462,-0.283325,0.546875,0.441528,0.993179,-0.111818,-0.240726,-24.748586,-55.945139,14.493726
1783968014.9514,11:40:14.951,23,false,0.651258,-0.284668,0.546082,0.44342,0.979995,-0.108888,-0.255375,-24.696249,-56.152716,14.659368
1783968014.9825,11:40:14.982,24,false,0.64975,-0.286865,0.544739,0.445862,0.980972,-0.102541,-0.257328,-24.708962,-56.249812,14.718723
1783968015.0137,11:40:15.013,25,false,0.649239,-0.287598,0.544312,0.446655,0.973648,-0.097658,-0.245121,-24.795173,-56.456829,14.846912
1783968015.0448,11:40:15.044,26,false,0.647825,-0.289612,0.542969,0.449036,0.969253,-0.101564,-0.255375,-24.723224,-56.523513,14.782836
1783968015.0759,11:40:15.075,27,false,0.646797,-0.290588,0.542053,0.450989,0.977554,-0.107912,-0.258793,-24.778101,-56.718114,14.81489
1783968015.1073,11:40:15.107,28,false,0.645627,-0.29187,0.540771,0.453369,0.970718,-0.11133,-0.259281,-24.618136,-56.938116,14.903554
1783968015.1386,11:40:15.138,29,false,0.644751,-0.29303,0.539856,0.454956,0.981949,-0.108888,-0.25977,-24.608753,-57.016487,14.923537
1783968015.1699,11:40:15.169,30,false,0.644012,-0.29425,0.53894,0.456299,0.976577,-0.105959,-0.251469,-24.719938,-57.116929,14.941521
1783968015.2013,11:40:15.201,31,false,0.643263,-0.295654,0.53772,0.457886,0.995621,-0.103029,-0.249027,-24.68542,-57.29705,15.017522
1783968015.2326,11:40:15.232,0,false,0.642759,-0.296753,0.536987,0.45874,0.984878,-0.111818,-0.247562,-24.699216,-57.249804,15.145739
1783968015.264,11:40:15.264,1,false,0.642195,-0.297424,0.53656,0.459595,0.985855,-0.10547,-0.249516,-24.502278,-57.326915,15.141503
1783968015.2951,11:40:15.295,2,false,0.641408,-0.298523,0.53595,0.460693,0.971695,-0.115724,-0.250492,-24.534388,-57.38136,15.227414
1783968015.3262,11:40:15.326,3,false,0.640629,-0.299561,0.535461,0.46167,0.978531,-0.100587,-0.246586,-24.578241,-57.445314,15.21501
1783968015.3574,11:40:15.357,4,false,0.639622,-0.30127,0.534546,0.463013,0.976577,-0.097658,-0.250492,-24.572847,-57.428104,15.383293
1783968015.3885,11:40:15.388,5,false,0.639045,-0.302368,0.533875,0.463867,0.989761,-0.099611,-0.252445,-24.538084,-57.412615,15.355302
1783968015.4197,11:40:15.419,6,false,0.638228,-0.303589,0.533203,0.464966,0.970718,-0.100099,-0.244144,-24.581568,-57.518305,15.33011
1783968015.4508,11:40:15.450,7,false,0.637099,-0.305115,0.532349,0.466492,0.983902,-0.104982,-0.254398,-24.530979,-57.70315,15.367252
1783968015.4821,11:40:15.482,8,false,0.636556,-0.305847,0.532043,0.467102,0.98146,-0.102541,-0.249027,-24.455542,-57.779787,15.370773
1783968015.5135,11:40:15.513,9,false,0.635387,-0.307007,0.53186,0.46814,0.986343,-0.113283,-0.243656,-24.387649,-57.773991,15.269264
1783968015.5448,11:40:15.544,10,false,0.635066,-0.307312,0.531799,0.468445,0.972183,-0.112306,-0.245609,-24.326545,-57.768775,15.222768
1783968015.5761,11:40:15.576,11,false,0.634344,-0.308105,0.531555,0.469177,0.968765,-0.107912,-0.247074,-24.376228,-57.674357,15.270645
1783968015.6075,11:40:15.607,12,false,0.634141,-0.30835,0.531494,0.46936,0.979507,-0.104982,-0.237308,-24.420943,-57.589381,15.343641
1783968015.6388,11:40:15.638,13,false,0.633405,-0.309143,0.531372,0.469971,0.966812,-0.104494,-0.240238,-24.401371,-57.677395,15.244846
1783968015.6702,11:40:15.670,14,false,0.633069,-0.309448,0.531433,0.470154,0.966812,-0.100587,-0.231449,-24.323941,-57.696792,15.425099
1783968015.7015,11:40:15.701,15,false,0.6328,-0.309509,0.531555,0.470337,0.979995,-0.100587,-0.245121,-24.463607,-57.654434,15.497604
1783968015.7326,11:40:15.732,16,false,0.632222,-0.309448,0.531738,0.470947,0.98146,-0.101564,-0.242191,-24.379954,-57.571451,15.547905
1783968015.7638,11:40:15.763,17,false,0.631912,-0.309326,0.531799,0.471375,0.972183,-0.105959,-0.249027,-24.36448,-57.541627,15.398775
1783968015.7949,11:40:15.794,18,false,0.631349,-0.309265,0.531799,0.472168,0.958511,-0.107424,-0.239261,-24.380462,-57.783955,15.369236
1783968015.8261,11:40:15.826,19,false,0.630952,-0.309143,0.531799,0.472778,0.987808,-0.11426,-0.250492,-24.439708,-57.777742,15.447327
1783968015.8574,11:40:15.857,20,false,0.630748,-0.309082,0.53186,0.473022,0.979995,-0.124025,-0.237797,-24.582752,-57.757197,15.397979
1783968015.8887,11:40:15.888,21,false,0.630535,-0.309143,0.53186,0.473267,0.975601,-0.114748,-0.236332,-24.546999,-57.828429,15.398426
1783968015.9201,11:40:15.920,22,false,0.630381,-0.309082,0.53186,0.473511,0.982925,-0.123537,-0.242191,-24.514821,-57.847677,15.368922
1783968015.9514,11:40:15.951,23,false,0.62986,-0.309021,0.53186,0.474243,0.977066,-0.112795,-0.241215,-24.485861,-57.79023,15.237691
1783968015.9827,11:40:15.982,24,false,0.629512,-0.308899,0.531799,0.474854,0.974624,-0.111818,-0.241703,-24.444844,-57.873113,15.284075
1783968016.0141,11:40:16.014,25,false,0.629143,-0.308777,0.531433,0.47583,0.975601,-0.126955,-0.249516,-24.437835,-57.947708,15.146375
1783968016.0454,11:40:16.045,26,false,0.628937,-0.308594,0.531128,0.476563,0.976089,-0.12842,-0.248539,-24.296944,-57.880258,15.291614
1783968016.0768,11:40:16.076,27,false,0.628854,-0.308228,0.530945,0.477112,0.984878,-0.11426,-0.248051,-24.274818,-57.774692,15.332606
1783968016.1079,11:40:16.107,28,false,0.62864,-0.307739,0.530823,0.477844,0.978531,-0.121584,-0.254887,-24.224997,-57.874083,15.384452
1783968016.139,11:40:16.139,29,false,0.628347,-0.307495,0.530762,0.478455,0.973648,-0.126467,-0.260746,-24.210065,-57.94858,15.311483
1783968016.1702,11:40:16.170,30,false,0.627825,-0.307251,0.53064,0.479431,0.989761,-0.129397,-0.25098,-24.16672,-58.000674,15.215904
1783968016.2015,11:40:16.201,31,false,0.627538,-0.30719,0.530518,0.47998,0.973648,-0.136721,-0.245121,-24.17257,-58.122328,15.234559
1783968016.2329,11:40:16.232,0,false,0.627509,-0.307068,0.530457,0.480164,0.976577,-0.137209,-0.262699,-24.192789,-58.276678,15.281257
1783968016.2642,11:40:16.264,1,false,0.627416,-0.307068,0.530457,0.480286,0.976577,-0.132326,-0.251469,-24.196033,-58.176331,15.158792
1783968016.2955,11:40:16.295,2,false,0.627222,-0.307312,0.530212,0.480652,0.979507,-0.134279,-0.256352,-24.228859,-58.235558,15.183159
1783968016.3269,11:40:16.326,3,false,0.627632,-0.307068,0.53009,0.480408,0.974624,-0.125978,-0.25684,-24.228496,-58.214093,15.24995
1783968016.3582,11:40:16.358,4,false,0.627749,-0.307251,0.529846,0.480408,0.974624,-0.117678,-0.254398,-24.183307,-58.239635,15.100708
1783968016.3895,11:40:16.389,5,false,0.627801,-0.307373,0.529602,0.48053,0.972671,-0.123049,-0.249516,-24.351991,-58.277578,15.160791
1783968016.4209,11:40:16.420,6,false,0.628006,-0.307251,0.529541,0.480408,0.977066,-0.124025,-0.25391,-24.279499,-58.236957,15.110188
1783968016.4522,11:40:16.452,7,false,0.627929,-0.307312,0.529541,0.480469,0.979995,-0.130373,-0.25684,-24.289025,-58.245259,15.094554
1783968016.4834,11:40:16.483,8,false,0.628001,-0.306946,0.529724,0.480408,0.981949,-0.117189,-0.255863,-24.177968,-58.282639,15.080482
1783968016.5145,11:40:16.514,9,false,0.627976,-0.307007,0.529663,0.480469,0.965347,-0.122072,-0.25684,-24.257463,-58.376096,15.052864
1783968016.5456,11:40:16.545,10,false,0.628002,-0.307068,0.529541,0.48053,0.96437,-0.132815,-0.25098,-24.149562,-58.325623,15.042962
1783968016.5768,11:40:16.576,11,false,0.627991,-0.307129,0.529297,0.480774,0.974624,-0.109865,-0.253422,-24.157128,-58.340013,15.049004
1783968016.6081,11:40:16.608,12,false,0.628107,-0.307007,0.529175,0.480835,0.974136,-0.117189,-0.256352,-24.193845,-58.352964,15.159118
1783968016.6395,11:40:16.639,13,false,0.627955,-0.306946,0.529114,0.48114,0.959976,-0.134279,-0.259281,-24.137168,-58.454342,15.033914
1783968016.6708,11:40:16.670,14,false,0.627734,-0.307129,0.528992,0.481445,0.969253,-0.12256,-0.255375,-23.966527,-58.440906,14.995999
1783968016.7021,11:40:16.702,15,false,0.627687,-0.307129,0.528992,0.481506,0.959976,-0.12549,-0.254887,-24.022304,-58.473675,15.036645
1783968016.7335,11:40:16.733,16,false,0.627916,-0.306824,0.529175,0.481201,0.960464,-0.140627,-0.25098,-24.132319,-58.562983,15.133041
1783968016.7648,11:40:16.764,17,false,0.628039,-0.306763,0.529175,0.481079,0.973648,-0.127443,-0.257328,-24.096748,-58.508775,15.130075
1783968016.7961,11:40:16.796,18,false,0.628077,-0.30658,0.529236,0.481079,0.97023,-0.132326,-0.253422,-24.004919,-58.489896,15.217129
1783968016.8273,11:40:16.827,19,false,0.628285,-0.306335,0.529297,0.480896,0.972671,-0.136233,-0.256352,-24.041903,-58.53272,15.1908
1783968016.8584,11:40:16.858,20,false,0.628137,-0.306458,0.529236,0.481079,0.982437,-0.12549,-0.270024,-24.12005,-58.466584,15.092335
1783968016.8896,11:40:16.889,21,false,0.627743,-0.306824,0.528992,0.481628,0.9673,-0.132815,-0.258305,-24.025891,-58.481832,15.078486
1783968016.9207,11:40:16.920,22,false,0.627589,-0.306946,0.528992,0.48175,0.958022,-0.131838,-0.255863,-24.03087,-58.525462,15.245467
1783968016.9518,11:40:16.951,23,false,0.627121,-0.307251,0.52887,0.4823,0.975113,-0.131838,-0.244633,-23.99049,-58.504914,15.291074
1783968016.9832,11:40:16.983,24,false,0.627052,-0.30719,0.528931,0.482361,0.968765,-0.136721,-0.260258,-23.954148,-58.516329,15.362027
1783968017.0145,11:40:17.014,25,false,0.626659,-0.307617,0.52887,0.482666,0.972183,-0.118654,-0.249516,-23.92144,-58.631278,15.395978
1783968017.0459,11:40:17.045,26,false,0.626466,-0.307678,0.529175,0.482544,0.965347,-0.138186,-0.251957,-24.011634,-58.555287,15.381672
1783968017.0772,11:40:17.077,27,false,0.626482,-0.307312,0.52948,0.482422,0.972671,-0.138186,-0.261234,-23.958224,-58.62148,15.383751
1783968017.1085,11:40:17.108,28,false,0.626365,-0.307312,0.529785,0.482239,0.977066,-0.126955,-0.242679,-23.999877,-58.621238,15.370667
1783968017.1397,11:40:17.139,29,false,0.626465,-0.307251,0.53009,0.481812,0.965347,-0.132326,-0.237308,-23.962597,-58.695789,15.358892
1783968017.1708,11:40:17.170,30,false,0.626784,-0.307251,0.530212,0.481262,0.969253,-0.117678,-0.245121,-23.943998,-58.70307,15.333341
1783968017.2019,11:40:17.201,31,false,0.626976,-0.307251,0.530151,0.481079,0.979507,-0.124025,-0.25098,-23.927259,-58.889069,15.310345
1783968017.2331,11:40:17.233,0,false,0.62707,-0.307251,0.530151,0.480957,0.973159,-0.12842,-0.252934,-23.957055,-58.951791,15.319556
1783968017.2642,11:40:17.264,1,false,0.626951,-0.307312,0.53009,0.48114,0.983413,-0.125002,-0.259281,-23.983872,-58.978333,15.223169
1783968017.2954,11:40:17.295,2,false,0.626721,-0.307495,0.53009,0.481323,0.978042,-0.137697,-0.253422,-24.008007,-58.88259,15.21119
1783968017.3265,11:40:17.326,3,false,0.626528,-0.307495,0.530151,0.481506,0.97023,-0.129397,-0.262211,-23.984867,-58.916052,15.230317
1783968017.3576,11:40:17.357,4,false,0.626435,-0.307495,0.530151,0.481628,0.978042,-0.125002,-0.252445,-23.814503,-58.946168,15.397069
1783968017.389,11:40:17.389,5,false,0.626163,-0.3078,0.529907,0.482056,0.967788,-0.130373,-0.251957,-23.750898,-58.88355,15.457424
1783968017.4203,11:40:17.420,6,false,0.625817,-0.308044,0.529785,0.482483,0.977554,-0.126955,-0.248051,-23.932915,-58.8571,15.332296
1783968017.4517,11:40:17.451,7,false,0.625975,-0.307617,0.529846,0.482483,0.968276,-0.140627,-0.253422,-23.887377,-58.818342,15.414081
1783968017.483,11:40:17.483,8,false,0.625924,-0.307617,0.529907,0.482483,0.970718,-0.132326,-0.25391,-23.980977,-58.828322,15.368057
1783968017.5141,11:40:17.514,9,false,0.625903,-0.307983,0.529663,0.482544,0.965347,-0.129885,-0.246586,-23.885771,-58.867211,15.236913
1783968017.5453,11:40:17.545,10,false,0.626136,-0.30835,0.529175,0.482544,0.974624,-0.136233,-0.25684,-23.93467,-58.872303,15.133836
1783968017.5766,11:40:17.576,11,false,0.626277,-0.308472,0.528992,0.482483,0.975113,-0.136721,-0.258305,-24.038494,-58.757256,15.100883
1783968017.6077,11:40:17.607,12,false,0.626363,-0.308411,0.52887,0.482544,0.977066,-0.127932,-0.251957,-23.937536,-58.683621,15.13104
1783968017.6389,11:40:17.638,13,false,0.626415,-0.308411,0.528809,0.482544,0.979507,-0.132815,-0.251469,-23.861628,-58.751934,15.217997
1783968017.67,11:40:17.670,14,false,0.626316,-0.308411,0.52887,0.482605,0.976577,-0.133303,-0.262211,-24.032572,-58.663877,15.22149
1783968017.7012,11:40:17.701,15,false,0.626098,-0.308167,0.528992,0.48291,0.980972,-0.125002,-0.257328,-23.977068,-58.52481,15.134909
1783968017.7325,11:40:17.732,16,false,0.626046,-0.308044,0.529236,0.482788,0.973159,-0.138186,-0.248051,-24.091607,-58.609004,15.14671
1783968017.7638,11:40:17.763,17,false,0.625879,-0.308289,0.529236,0.482849,0.956558,-0.139162,-0.254887,-24.000291,-58.61001,15.202193
1783968017.7952,11:40:17.795,18,false,0.62595,-0.309021,0.529114,0.482422,0.969253,-0.12842,-0.264164,-23.962969,-58.536146,15.252127
1783968017.8265,11:40:17.826,19,false,0.626076,-0.309631,0.529053,0.481934,0.979507,-0.121096,-0.248051,-23.974241,-58.574345,15.147529
1783968017.8579,11:40:17.857,20,false,0.626598,-0.309753,0.529419,0.480774,0.96437,-0.109865,-0.249027,-23.954478,-58.59377,15.247791
1783968017.889,11:40:17.889,21,false,0.626742,-0.309631,0.529541,0.48053,0.974136,-0.109865,-0.23975,-23.876875,-58.566391,15.248304
1783968017.9201,11:40:17.920,22,false,0.626747,-0.309631,0.52948,0.480591,0.971206,-0.121096,-0.247562,-23.91171,-58.706242,15.129134
1783968017.9513,11:40:17.951,23,false,0.626585,-0.30957,0.529541,0.480774,0.977066,-0.12842,-0.241215,-23.868292,-58.712478,15.201328
1783968017.9824,11:40:17.982,24,false,0.626727,-0.309387,0.52948,0.480774,0.992203,-0.12549,-0.255863,-23.859124,-58.71809,15.221441
1783968018.0135,11:40:18.013,25,false,0.626753,-0.309326,0.529541,0.480713,0.967788,-0.130861,-0.244633,-23.850872,-58.842771,15.314312
1783968018.0447,11:40:18.044,26,false,0.626701,-0.309326,0.529602,0.480713,0.979019,-0.129885,-0.242679,-23.948123,-58.745631,15.248357
1783968018.0758,11:40:18.075,27,false,0.626582,-0.309387,0.529541,0.480896,0.968765,-0.128908,-0.254398,-24.140325,-58.732973,15.293675
1783968018.107,11:40:18.107,28,false,0.62671,-0.309204,0.529663,0.480713,0.969253,-0.117678,-0.244633,-24.223584,-58.661767,15.304553
1783968018.1383,11:40:18.138,29,false,0.626616,-0.309204,0.529663,0.480835,0.982925,-0.135744,-0.258793,-24.223748,-58.59768,15.314343
1783968018.1696,11:40:18.169,30,false,0.62647,-0.309509,0.529602,0.480896,0.963394,-0.124514,-0.238773,-24.283711,-58.569911,15.278293
1783968018.201,11:40:18.201,31,false,0.626606,-0.309937,0.529358,0.480713,0.966323,-0.113771,-0.259281,-24.262908,-58.604733,15.21594
1783968018.2323,11:40:18.232,0,false,0.627685,-0.311646,0.528015,0.479675,0.949233,-0.122072,-0.232425,-24.18437,-58.516443,15.234592
1783968018.2637,11:40:18.263,1,false,0.629262,-0.313293,0.526489,0.47821,0.960952,-0.129885,-0.235843,-24.263225,-58.39212,15.251378
1783968018.295,11:40:18.295,2,false,0.63149,-0.31665,0.523743,0.476074,0.92726,-0.152834,-0.254887,-24.184656,-58.429767,15.131902
1783968018.3263,11:40:18.326,3,false,0.638421,-0.325256,0.516846,0.468506,0.941909,-0.12842,-0.264652,-24.113943,-58.209435,15.05428
1783968018.3575,11:40:18.357,4,false,0.645275,-0.333191,0.510315,0.460632,0.960464,-0.113771,-0.272953,-24.259656,-58.100859,15.178821
1783968018.3886,11:40:18.388,5,false,0.656706,-0.347473,0.499207,0.445862,1.026383,-0.062989,-0.28809,-24.540335,-57.674156,15.126415
1783968018.4197,11:40:18.419,6,false,0.659817,-0.352112,0.495911,0.441284,1.031754,0.01416,-0.27393,-24.56864,-57.185446,15.07925
1783968018.4509,11:40:18.450,7,false,0.666946,-0.364319,0.487671,0.429688,1.021012,0.089845,-0.274418,-24.788513,-56.611023,14.902217
1783968018.482,11:40:18.482,8,false,0.670062,-0.3703,0.484009,0.423828,1.026871,0.114748,-0.273442,-24.941538,-56.153858,14.877472
1783968018.5134,11:40:18.513,9,false,0.671667,-0.375732,0.482056,0.418701,1.003433,0.140139,-0.260258,-25.228799,-55.66764,14.780432
1783968018.5447,11:40:18.544,10,false,0.67147,-0.377075,0.482605,0.417175,0.98439,0.151858,-0.263188,-25.292933,-55.125366,14.767865
1783968018.576,11:40:18.576,11,false,0.670506,-0.377014,0.484253,0.41687,0.968765,0.133791,-0.252445,-25.425424,-54.741997,14.816371
1783968018.6074,11:40:18.607,12,false,0.668924,-0.375732,0.487427,0.41687,0.968276,0.102052,-0.242679,-25.634388,-54.307242,14.770302
1783968018.6387,11:40:18.638,13,false,0.667647,-0.374329,0.48999,0.417175,0.98146,0.08838,-0.253422,-25.822456,-53.94587,14.728841
1783968018.6701,11:40:18.670,14,false,0.66597,-0.372131,0.493103,0.418152,0.993668,0.1084,-0.238773,-25.901994,-53.530912,14.646664
1783968018.7012,11:40:18.701,15,false,0.662271,-0.366577,0.499451,0.421387,0.980972,0.112306,-0.240726,-26.033394,-53.366804,14.617566
1783968018.7323,11:40:18.732,16,false,0.658772,-0.361389,0.504883,0.424866,0.977066,0.121096,-0.231937,-26.151654,-53.144337,14.696055
1783968018.7635,11:40:18.763,17,false,0.652979,-0.35321,0.513062,0.430847,0.926772,0.072755,-0.222171,-26.108549,-53.347871,14.916234
1783968018.7946,11:40:18.794,18,false,0.651247,-0.350769,0.515442,0.432617,0.954604,0.03418,-0.216312,-26.234247,-53.501144,15.024672
1783968018.8257,11:40:18.825,19,false,0.646639,-0.344727,0.521423,0.437195,0.93019,-0.025879,-0.199222,-26.272606,-53.683951,15.301712
1783968018.8569,11:40:18.856,20,false,0.644886,-0.341675,0.524109,0.438965,0.943374,-0.045899,-0.20264,-26.322083,-53.9382,15.356648
1783968018.8882,11:40:18.888,21,false,0.644568,-0.339844,0.525024,0.439758,0.967788,-0.0542,-0.206546,-26.261936,-54.167025,15.540675
1783968018.9196,11:40:18.919,22,false,0.645702,-0.34021,0.524109,0.438904,1.000992,-0.029786,-0.217288,-26.342387,-54.313151,15.616576
1783968018.9509,11:40:18.950,23,false,0.646443,-0.341248,0.523132,0.438171,1.028824,-0.003906,-0.217288,-26.220394,-54.444665,15.58021
1783968018.9822,11:40:18.982,24,false,0.646781,-0.341187,0.52301,0.437866,1.009781,-0.028809,-0.223636,-26.230231,-54.488258,15.652158
1783968019.0136,11:40:19.013,25,false,0.646718,-0.34082,0.523071,0.438171,1.00734,-0.015137,-0.226078,-26.328807,-54.587308,15.881403
1783968019.0449,11:40:19.044,26,false,0.647042,-0.339233,0.523804,0.438049,1.000015,-0.000977,-0.228519,-26.253033,-54.766175,15.923231
1783968019.0763,11:40:19.076,27,false,0.646709,-0.338135,0.524414,0.43866,0.971206,-0.016602,-0.215335,-26.154929,-54.837433,16.0506
1783968019.1074,11:40:19.107,28,false,0.646544,-0.336914,0.524841,0.439331,0.966323,-0.020508,-0.219242,-26.20122,-54.886611,16.045601
1783968019.1385,11:40:19.138,29,false,0.647908,-0.337097,0.523499,0.438782,0.958999,-0.066407,-0.222171,-26.183066,-54.945825,15.981287
1783968019.1697,11:40:19.169,30,false,0.650068,-0.340332,0.520813,0.436279,0.983902,-0.042969,-0.23975,-26.151774,-55.088841,16.013127
1783968019.2008,11:40:19.200,31,false,0.652342,-0.345337,0.517517,0.432861,1.029801,0.021973,-0.256352,-26.108658,-55.172693,16.026829
1783968019.2319,11:40:19.231,0,false,0.653498,-0.352539,0.514648,0.428711,1.063981,0.06836,-0.264652,-26.159576,-55.008899,15.994299
1783968019.2633,11:40:19.263,1,false,0.651792,-0.353882,0.515686,0.428955,1.047379,0.067384,-0.258305,-26.175494,-54.996069,16.024838
1783968019.2946,11:40:19.294,2,false,0.647589,-0.349304,0.520813,0.432861,0.988785,0.070802,-0.207034,-26.219728,-54.954614,16.097185
1783968019.326,11:40:19.326,3,false,0.645786,-0.346802,0.523193,0.434692,0.988785,0.043458,-0.220706,-26.244586,-54.932259,16.207158
1783968019.3573,11:40:19.357,4,false,0.639237,-0.337524,0.531006,0.442139,0.866224,-0.036622,-0.180667,-26.341726,-54.83737,16.350995
1783968019.3886,11:40:19.388,5,false,0.637124,-0.333862,0.533203,0.445313,0.872084,-0.08838,-0.172854,-26.369337,-54.916462,16.420634
1783968019.42,11:40:19.420,6,false,0.638339,-0.333557,0.530762,0.446716,0.940444,-0.148928,-0.195804,-26.28951,-55.137183,16.483308
1783968019.4513,11:40:19.451,7,false,0.641363,-0.335693,0.526367,0.445984,0.988296,-0.124025,-0.214847,-26.337297,-55.246109,16.449992
1783968019.4825,11:40:19.482,8,false,0.644996,-0.338257,0.521606,0.444397,1.021988,-0.07715,-0.236332,-26.380305,-55.314235,16.569546
1783968019.5136,11:40:19.513,9,false,0.648247,-0.340637,0.516785,0.443481,1.071305,-0.000977,-0.267094,-26.25452,-55.240964,16.482745
1783968019.5447,11:40:19.544,10,false,0.648051,-0.339417,0.516785,0.444702,1.065934,0.000977,-0.261723,-26.201129,-55.234835,16.374716
1783968019.5759,11:40:19.575,11,false,0.646649,-0.336548,0.518677,0.446716,1.042496,0.009766,-0.260258,-26.227846,-55.184457,16.322352
1783968019.607,11:40:19.607,12,false,0.642959,-0.331116,0.523254,0.450745,1.002945,-0.003906,-0.256352,-26.236937,-55.228841,16.290178
1783968019.6383,11:40:19.638,13,false,0.639605,-0.326477,0.527466,0.453979,0.959487,-0.026856,-0.243656,-26.24512,-55.418324,16.33599
1783968019.6697,11:40:19.669,14,false,0.636004,-0.321228,0.53186,0.457642,0.897963,-0.094728,-0.217288,-26.132853,-55.63372,16.377221
1783968019.701,11:40:19.701,15,false,0.635034,-0.319885,0.532776,0.458862,0.940444,-0.150393,-0.217288,-26.046767,-55.9173,16.324606
1783968019.7324,11:40:19.732,16,false,0.634938,-0.319214,0.532715,0.459534,0.975113,-0.138186,-0.227543,-26.044059,-56.097753,16.38193
1783968019.7637,11:40:19.763,17,false,0.635953,-0.318604,0.531921,0.459473,0.999039,-0.091798,-0.249516,-25.966852,-56.33493,16.538198
1783968019.795,11:40:19.795,18,false,0.636168,-0.318604,0.531189,0.460022,1.012222,-0.08838,-0.23389,-25.852504,-56.458666,16.484439
1783968019.8264,11:40:19.826,19,false,0.636555,-0.318359,0.530396,0.460571,1.008316,-0.076173,-0.240726,-25.749592,-56.495259,16.465964
1783968019.8575,11:40:19.857,20,false,0.636623,-0.318237,0.530334,0.460632,0.99855,-0.080568,-0.246586,-25.686878,-56.677731,16.568967
1783968019.8887,11:40:19.888,21,false,0.636347,-0.318298,0.530151,0.461182,0.974624,-0.089357,-0.251957,-25.600528,-56.767187,16.332685
1783968019.92,11:40:19.920,22,false,0.635751,-0.318298,0.530334,0.461792,0.994644,-0.109865,-0.250492,-25.418136,-57.01219,16.46397
1783968019.9511,11:40:19.951,23,false,0.633866,-0.317139,0.532166,0.463074,0.947768,-0.106447,-0.234379,-25.403521,-57.113061,16.327911
1783968019.9825,11:40:19.982,24,false,0.63326,-0.317078,0.533081,0.462891,0.980972,-0.106447,-0.238773,-25.390368,-57.203846,16.310135
1783968020.0138,11:40:20.013,25,false,0.632646,-0.316956,0.533936,0.46283,0.978531,-0.110353,-0.234867,-25.557977,-57.315459,16.30909
1783968020.0451,11:40:20.045,26,false,0.632161,-0.317017,0.53479,0.462463,0.968276,-0.083497,-0.223636,-25.589194,-57.341142,16.30815
1783968020.0765,11:40:20.076,27,false,0.632259,-0.317444,0.53479,0.462036,0.994156,-0.086915,-0.227054,-25.557474,-57.409118,16.397027
1783968020.1078,11:40:20.107,28,false,0.632313,-0.318176,0.534607,0.46167,0.982925,-0.080568,-0.218265,-25.499018,-57.515159,16.29757
1783968020.1392,11:40:20.139,29,false,0.632364,-0.31897,0.53418,0.461548,1.001968,-0.075196,-0.222171,-25.476315,-57.490964,16.357597
1783968020.1703,11:40:20.170,30,false,0.632049,-0.319153,0.53418,0.461853,0.993668,-0.077638,-0.214359,-25.56056,-57.454235,16.351806
1783968020.2015,11:40:20.201,31,false,0.631083,-0.318481,0.535034,0.462646,0.98146,-0.087892,-0.232425,-25.44198,-57.466041,16.421363
1783968020.2327,11:40:20.232,0,false,0.630587,-0.31842,0.535339,0.463013,0.979019,-0.092287,-0.229007,-25.275443,-57.521527,16.394242
1783968020.2638,11:40:20.263,1,false,0.628958,-0.318665,0.536316,0.463928,0.973648,-0.1084,-0.226078,-25.349867,-57.541557,16.444602
1783968020.295,11:40:20.295,2,false,0.62814,-0.318848,0.536743,0.464417,0.972183,-0.114748,-0.219242,-25.371987,-57.425,16.43011
1783968020.3261,11:40:20.326,3,false,0.627725,-0.318604,0.537109,0.464722,0.966323,-0.111818,-0.218753,-25.421803,-57.514498,16.461929
1783968020.3572,11:40:20.357,4,false,0.62749,-0.318726,0.537048,0.465027,0.986831,-0.110353,-0.2168,-25.24233,-57.595046,16.415797
1783968020.3886,11:40:20.388,5,false,0.627537,-0.318604,0.53717,0.464905,0.991714,-0.104982,-0.21387,-25.230342,-57.697447,16.523817
1783968020.4199,11:40:20.419,6,false,0.627733,-0.318176,0.537354,0.464722,0.968765,-0.110353,-0.232914,-25.189646,-57.684932,16.621035
1783968020.4512,11:40:20.451,7,false,0.627966,-0.317627,0.537354,0.464783,0.988785,-0.104494,-0.23389,-25.153019,-57.554037,16.663669
1783968020.4826,11:40:20.482,8,false,0.628304,-0.316406,0.537415,0.465088,0.985855,-0.100099,-0.246586,-25.164916,-57.570816,16.716994
1783968020.5139,11:40:20.513,9,false,0.628537,-0.315125,0.537842,0.465149,0.977554,-0.122072,-0.245121,-25.16067,-57.600871,16.794894
1783968020.5453,11:40:20.545,10,false,0.628972,-0.313782,0.53833,0.464905,0.980484,-0.115236,-0.228031,-25.246571,-57.837274,16.775281
1783968020.5766,11:40:20.576,11,false,0.628923,-0.313293,0.538513,0.465088,0.971206,-0.110842,-0.240238,-25.219206,-58.005176,16.712768
1783968020.6077,11:40:20.607,12,false,0.628991,-0.313232,0.538574,0.464966,0.970718,-0.124025,-0.238773,-25.149715,-58.05161,16.731275
1783968020.6389,11:40:20.638,13,false,0.628954,-0.313354,0.538757,0.464722,0.97023,-0.126955,-0.227054,-25.26662,-58.033586,16.658209
1783968020.67,11:40:20.670,14,false,0.629181,-0.313354,0.539124,0.463989,0.977554,-0.106935,-0.222171,-25.192388,-58.032318,16.682172
1783968020.7012,11:40:20.701,15,false,0.629133,-0.313782,0.539246,0.463623,0.987808,-0.096681,-0.23389,-25.275117,-58.180715,16.62897
1783968020.7323,11:40:20.732,16,false,0.628972,-0.314331,0.539795,0.46283,1.00148,-0.101076,-0.211429,-25.229943,-58.119872,16.596041
1783968020.7636,11:40:20.763,17,false,0.628896,-0.314514,0.540039,0.462524,0.995132,-0.091798,-0.212406,-25.383687,-58.259514,16.700991
1783968020.795,11:40:20.795,18,false,0.628366,-0.314941,0.540771,0.462097,0.979507,-0.098634,-0.207523,-25.432332,-58.370238,16.66086
1783968020.8263,11:40:20.826,19,false,0.628229,-0.315125,0.541138,0.461731,0.971695,-0.10547,-0.209964,-25.26676,-58.559612,16.684558
1783968020.8577,11:40:20.857,20,false,0.628754,-0.315552,0.540955,0.460938,0.964858,-0.095216,-0.205081,-25.312145,-58.430972,16.810563
1783968020.8888,11:40:20.888,21,false,0.629461,-0.315735,0.540649,0.460205,0.975601,-0.095216,-0.206058,-25.293176,-58.419873,16.938922
1783968020.9199,11:40:20.919,22,false,0.6299,-0.315857,0.540222,0.460022,0.975601,-0.089357,-0.214847,-25.216288,-58.574376,16.904906
1783968020.9511,11:40:20.951,23,false,0.630028,-0.315918,0.539673,0.460449,0.98732,-0.11133,-0.220218,-25.296628,-58.563891,16.934107
1783968020.9822,11:40:20.982,24,false,0.6302,-0.315918,0.539368,0.460571,0.992691,-0.102541,-0.217288,-25.174533,-58.494638,17.020204
1783968021.0133,11:40:21.013,25,false,0.6302,-0.315918,0.539368,0.460571,0.991226,-0.110842,-0.221195,-25.079602,-58.372496,17.112644
1783968021.0445,11:40:21.044,26,false,0.630005,-0.31604,0.539368,0.460754,0.979019,-0.107912,-0.227543,-25.278287,-58.397152,17.180887
1783968021.0756,11:40:21.075,27,false,0.629931,-0.315979,0.53949,0.460754,0.981949,-0.104982,-0.216312,-25.337473,-58.568881,17.346982
1783968021.1068,11:40:21.106,28,false,0.629741,-0.316284,0.539429,0.460876,0.986343,-0.104982,-0.221683,-25.211294,-58.543991,17.287114
1783968021.1381,11:40:21.138,29,false,0.629426,-0.316956,0.539246,0.46106,0.980972,-0.097658,-0.223636,-25.187456,-58.491682,17.173418
1783968021.1694,11:40:21.169,30,false,0.629123,-0.317322,0.539124,0.461365,0.978042,-0.096193,-0.209964,-25.240772,-58.564235,17.175768
1783968021.2008,11:40:21.200,31,false,0.62895,-0.317383,0.539185,0.461487,0.984878,-0.106935,-0.229496,-25.363524,-58.509902,17.222744
1783968021.2321,11:40:21.232,0,false,0.628867,-0.317444,0.539246,0.461487,0.990249,-0.104982,-0.203616,-25.399233,-58.535772,17.220162
1783968021.2633,11:40:21.263,1,false,0.628503,-0.31781,0.539246,0.461731,0.984878,-0.103517,-0.218265,-25.506139,-58.409516,17.262699
1783968021.2946,11:40:21.294,2,false,0.628421,-0.317749,0.539429,0.46167,0.987808,-0.104005,-0.217777,-25.393002,-58.43047,17.345844
1783968021.3259,11:40:21.325,3,false,0.627842,-0.317932,0.539734,0.461975,0.986831,-0.094728,-0.201175,-25.336039,-58.479237,17.360859
1783968021.3571,11:40:21.357,4,false,0.627401,-0.31781,0.540161,0.462158,0.974136,-0.096681,-0.207034,-25.374496,-58.508173,17.344465
1783968021.3882,11:40:21.388,5,false,0.626801,-0.31781,0.540283,0.46283,0.963394,-0.104494,-0.22266,-25.349292,-58.519261,17.359618
1783968021.4193,11:40:21.419,6,false,0.62681,-0.317688,0.540344,0.46283,0.976577,-0.121096,-0.203128,-25.416331,-58.439518,17.343348
1783968021.4505,11:40:21.450,7,false,0.626789,-0.317627,0.540405,0.46283,0.979507,-0.115236,-0.226566,-25.446759,-58.397657,17.403474
1783968021.4816,11:40:21.481,8,false,0.626576,-0.31781,0.540283,0.463135,0.992203,-0.101564,-0.220706,-25.474143,-58.50952,17.382818
1783968021.513,11:40:21.513,9,false,0.626574,-0.317932,0.540161,0.463196,0.994156,-0.081544,-0.224125,-25.573559,-58.50552,17.259551
1783968021.5443,11:40:21.544,10,false,0.626145,-0.317932,0.540344,0.463562,1.001968,-0.099123,-0.223636,-25.543402,-58.531828,17.118703
1783968021.5756,11:40:21.575,11,false,0.625714,-0.317505,0.540833,0.463867,0.979507,-0.095216,-0.222171,-25.516261,-58.525597,17.126525
1783968021.607,11:40:21.607,12,false,0.625417,-0.317139,0.541077,0.464233,0.974624,-0.116213,-0.223148,-25.566604,-58.594758,17.178426
1783968021.6383,11:40:21.638,13,false,0.625023,-0.31665,0.541504,0.4646,0.994156,-0.123537,-0.224613,-25.522189,-58.627096,17.210182
1783968021.6695,11:40:21.669,14,false,0.62488,-0.316528,0.541687,0.464661,0.995621,-0.11426,-0.229496,-25.4224,-58.566477,17.253718
1783968021.7006,11:40:21.700,15,false,0.624286,-0.316162,0.542114,0.46521,0.995621,-0.107424,-0.214847,-25.482128,-58.661458,17.292899
1783968021.7317,11:40:21.731,16,false,0.624018,-0.315674,0.542603,0.465332,0.988296,-0.096193,-0.211429,-25.431207,-58.567495,17.402932
1783968021.7629,11:40:21.762,17,false,0.622966,-0.315247,0.543274,0.466248,0.980972,-0.112795,-0.207034,-25.445193,-58.677328,17.412238
1783968021.794,11:40:21.794,18,false,0.622405,-0.314819,0.54364,0.466858,0.980484,-0.121096,-0.2168,-25.427873,-58.731317,17.510337
1783968021.8251,11:40:21.825,19,false,0.621973,-0.314209,0.544067,0.467346,0.977066,-0.129397,-0.21387,-25.382377,-58.660276,17.478995
1783968021.8563,11:40:21.856,20,false,0.621311,-0.313416,0.544495,0.468262,0.983413,-0.137209,-0.223148,-25.326477,-58.551477,17.585372
1783968021.8874,11:40:21.887,21,false,0.62079,-0.312927,0.544739,0.468994,0.98439,-0.123537,-0.207523,-25.380844,-58.662912,17.606342
1783968021.9188,11:40:21.918,22,false,0.620238,-0.31189,0.545227,0.469849,0.986343,-0.133791,-0.214847,-25.355005,-58.763204,17.729891
1783968021.9501,11:40:21.950,23,false,0.619952,-0.311157,0.545654,0.470215,0.97023,-0.136233,-0.206546,-25.33175,-58.853466,17.706502
1783968021.9814,11:40:21.981,24,false,0.619696,-0.310486,0.545959,0.470642,0.991714,-0.137209,-0.214847,-25.355682,-58.904794,17.64059
1783968022.0128,11:40:22.012,25,false,0.619369,-0.309998,0.546082,0.471252,0.980484,-0.154788,-0.211429,-25.317405,-59.115482,17.536407
1783968022.0439,11:40:22.043,26,false,0.619198,-0.309998,0.545959,0.471619,0.972183,-0.150393,-0.229984,-25.268002,-59.06584,17.412735
1783968022.0751,11:40:22.075,27,false,0.619027,-0.310059,0.545959,0.471802,0.975601,-0.137209,-0.208011,-25.178678,-59.051069,17.346292
1783968022.1062,11:40:22.106,28,false,0.619158,-0.309875,0.546021,0.47168,0.972183,-0.137697,-0.227543,-25.158102,-59.142453,17.406124
1783968022.1373,11:40:22.137,29,false,0.619412,-0.309509,0.546204,0.471375,0.980484,-0.155276,-0.22266,-25.199399,-59.314421,17.29548
1783968022.1685,11:40:22.168,30,false,0.619343,-0.309448,0.546265,0.471436,0.97023,-0.131838,-0.220706,-25.087027,-59.394423,17.27067
1783968022.1996,11:40:22.199,31,false,0.619266,-0.309509,0.546265,0.471497,0.982437,-0.139651,-0.215335,-25.075616,-59.331841,17.233387
1783968022.2307,11:40:22.230,0,false,0.619288,-0.309326,0.546448,0.471375,0.97023,-0.139651,-0.212406,-25.020484,-59.395147,17.274602
1783968022.2619,11:40:22.261,1,false,0.619288,-0.309326,0.546448,0.471375,0.976089,-0.14551,-0.208988,-24.731605,-59.422215,17.431325
1783968022.2932,11:40:22.293,2,false,0.619334,-0.309082,0.546692,0.471191,0.979995,-0.151858,-0.206546,-24.770689,-59.446576,17.4677
1783968022.3246,11:40:22.324,3,false,0.619551,-0.309143,0.54657,0.471008,0.986343,-0.135744,-0.208011,-24.880635,-59.61804,17.470529
1783968022.3559,11:40:22.355,4,false,0.619738,-0.30957,0.546326,0.470764,0.978042,-0.137697,-0.215824,-24.845002,-59.712542,17.383353
1783968022.3872,11:40:22.387,5,false,0.620019,-0.310181,0.546082,0.470276,0.976089,-0.130861,-0.206058,-24.887701,-59.767686,17.514248
1783968022.4186,11:40:22.418,6,false,0.620374,-0.310425,0.545959,0.469788,0.979507,-0.128908,-0.207034,-24.821453,-59.742546,17.482515
1783968022.4499,11:40:22.449,7,false,0.62069,-0.310669,0.545776,0.469421,0.981949,-0.127443,-0.212894,-24.791738,-59.690013,17.528724
1783968022.4811,11:40:22.481,8,false,0.620899,-0.310913,0.545715,0.469055,0.978042,-0.125978,-0.209476,-24.824809,-59.582917,17.405821
1783968022.5122,11:40:22.512,9,false,0.620945,-0.310791,0.545837,0.468933,0.9673,-0.132815,-0.202152,-24.779804,-59.665977,17.444746
1783968022.5433,11:40:22.543,10,false,0.620884,-0.310913,0.545837,0.468933,0.991226,-0.133791,-0.210941,-24.709392,-59.561285,17.375101
1783968022.5745,11:40:22.574,11,false,0.62083,-0.310913,0.545898,0.468933,0.991714,-0.127443,-0.209964,-24.79556,-59.541832,17.387191
1783968022.6056,11:40:22.605,12,false,0.620807,-0.311401,0.545593,0.468994,0.990738,-0.135256,-0.208499,-24.813296,-59.688816,17.308348
1783968022.6367,11:40:22.636,13,false,0.62116,-0.312012,0.545105,0.468689,0.983413,-0.133791,-0.209476,-24.844211,-59.686517,17.35702
1783968022.6681,11:40:22.668,14,false,0.621443,-0.312256,0.5448,0.468506,0.971695,-0.123537,-0.212894,-24.737451,-59.594725,17.415779
1783968022.6994,11:40:22.699,15,false,0.622231,-0.312378,0.544617,0.46759,0.985855,-0.124514,-0.203616,-24.760997,-59.482205,17.289216
1783968022.7308,11:40:22.730,16,false,0.622376,-0.312561,0.544556,0.467346,0.985367,-0.110353,-0.21387,-24.692466,-59.39589,17.339802
1783968022.7621,11:40:22.762,17,false,0.622718,-0.313049,0.54425,0.466919,0.981949,-0.110353,-0.203128,-24.720511,-59.303253,17.220836
1783968022.7934,11:40:22.793,18,false,0.622808,-0.313477,0.544006,0.466797,0.974624,-0.108888,-0.210452,-24.70089,-59.294649,17.188537
1783968022.8248,11:40:22.824,19,false,0.623128,-0.313599,0.543884,0.466431,0.973648,-0.12549,-0.220218,-24.653323,-59.167275,17.189375
1783968022.8561,11:40:22.856,20,false,0.623205,-0.313416,0.544006,0.466309,0.977554,-0.112306,-0.210452,-24.760052,-59.097499,17.264898
1783968022.8873,11:40:22.887,21,false,0.623112,-0.31366,0.543762,0.466553,0.98146,-0.112795,-0.212894,-24.811246,-59.139378,17.228193
1783968022.9184,11:40:22.918,22,false,0.623081,-0.313843,0.54364,0.466614,0.979507,-0.11133,-0.208499,-24.782551,-59.147162,17.195157
1783968022.9495,11:40:22.949,23,false,0.623326,-0.313599,0.543762,0.466309,0.989761,-0.10547,-0.219242,-24.906264,-59.154167,17.37478
1783968022.9807,11:40:22.980,24,false,0.623303,-0.31366,0.543701,0.46637,0.973159,-0.110353,-0.220706,-24.942837,-59.160471,17.356993
1783968023.0118,11:40:23.011,25,false,0.623394,-0.31366,0.543701,0.466248,0.975113,-0.130861,-0.20557,-25.050522,-59.091376,17.490524
1783968023.0431,11:40:23.043,26,false,0.623363,-0.313721,0.543701,0.466248,0.985367,-0.1084,-0.208499,-24.982946,-59.074052,17.341533
1783968023.0745,11:40:23.074,27,false,0.623271,-0.313904,0.543701,0.466248,0.98439,-0.109377,-0.213382,-24.937081,-59.163137,17.327071
1783968023.1058,11:40:23.105,28,false,0.623202,-0.313965,0.54364,0.46637,0.980484,-0.108888,-0.215335,-24.970572,-59.198452,17.284148
1783968023.1372,11:40:23.137,29,false,0.623179,-0.314026,0.543579,0.466431,0.979019,-0.126955,-0.211429,-24.791361,-59.170421,17.260471
1783968023.1683,11:40:23.168,30,false,0.623102,-0.314087,0.543579,0.466492,0.993179,-0.123049,-0.221683,-24.809516,-59.249869,17.298978
1783968023.1994,11:40:23.199,31,false,0.623171,-0.314026,0.54364,0.46637,0.973159,-0.11133,-0.217777,-24.855764,-59.171834,17.333633
1783968023.2306,11:40:23.230,0,false,0.623224,-0.314148,0.543457,0.466431,0.98146,-0.106935,-0.226566,-24.807663,-59.146464,17.349869
1783968023.2619,11:40:23.261,1,false,0.623323,-0.314026,0.543518,0.466309,0.981949,-0.107424,-0.219242,-24.839142,-58.944185,17.394389
1783968023.2931,11:40:23.293,2,false,0.623659,-0.313782,0.54364,0.465881,0.98439,-0.119142,-0.210452,-24.717935,-58.881765,17.40455
1783968023.3242,11:40:23.324,3,false,0.623568,-0.313904,0.543518,0.466064,0.991714,-0.106447,-0.225101,-24.967741,-58.91531,17.383787
1783968023.3553,11:40:23.355,4,false,0.623613,-0.313965,0.54364,0.46582,0.985855,-0.107912,-0.209964,-25.043027,-58.975408,17.409961
1783968023.3867,11:40:23.386,5,false,0.623515,-0.313843,0.543823,0.46582,0.987808,-0.102541,-0.215824,-25.05097,-59.014542,17.47838
1783968023.418,11:40:23.418,6,false,0.623019,-0.314026,0.543762,0.466431,0.982437,-0.114748,-0.211917,-24.998303,-59.109578,17.420326
1783968023.4493,11:40:23.449,7,false,0.6228,-0.313721,0.543823,0.466858,0.970718,-0.123049,-0.214847,-25.05558,-59.030618,17.457801
1783968023.4807,11:40:23.480,8,false,0.622701,-0.31366,0.543762,0.467102,0.977554,-0.13135,-0.222171,-24.927682,-59.004416,17.431712
1783968023.512,11:40:23.512,9,false,0.622709,-0.313538,0.543823,0.467102,0.968276,-0.127443,-0.220706,-25.021929,-59.070557,17.468048
1783968023.5434,11:40:23.543,10,false,0.622839,-0.313354,0.543884,0.46698,0.992203,-0.121584,-0.234379,-25.031981,-59.025408,17.500751
1783968023.5747,11:40:23.574,11,false,0.622877,-0.313293,0.543823,0.467041,0.986831,-0.121096,-0.216312,-25.08589,-59.059542,17.380644
1783968023.6058,11:40:23.605,12,false,0.622854,-0.313354,0.543762,0.467102,0.988785,-0.108888,-0.221683,-25.089546,-59.090263,17.451995
1783968023.637,11:40:23.637,13,false,0.622923,-0.313293,0.543823,0.46698,0.974624,-0.116701,-0.21387,-25.062929,-59.013235,17.486302
1783968023.6681,11:40:23.668,14,false,0.623045,-0.313232,0.543823,0.466858,0.980484,-0.114748,-0.226566,-25.083836,-59.108402,17.502225
1783968023.6993,11:40:23.699,15,false,0.62303,-0.313171,0.543823,0.466919,0.969741,-0.120119,-0.211917,-24.938159,-59.134236,17.426833
1783968023.7304,11:40:23.730,16,false,0.622808,-0.313354,0.543762,0.467163,0.973159,-0.124514,-0.220218,-24.881819,-59.262165,17.35898
1783968023.7615,11:40:23.761,17,false,0.622647,-0.313538,0.543579,0.467468,0.986343,-0.132815,-0.220706,-24.666621,-59.1829,17.312866
1783968023.7929,11:40:23.792,18,false,0.622616,-0.313599,0.543579,0.467468,0.979995,-0.116701,-0.212894,-24.682297,-59.350824,17.286317
1783968023.8242,11:40:23.824,19,false,0.62257,-0.313599,0.543579,0.467529,0.98732,-0.129885,-0.207523,-24.726313,-59.382324,17.307285
1783968023.8556,11:40:23.855,20,false,0.622593,-0.31366,0.543518,0.467529,0.983902,-0.117189,-0.212894,-24.750973,-59.365813,17.236433
1783968023.8869,11:40:23.886,21,false,0.622601,-0.313538,0.543579,0.467529,0.971695,-0.128908,-0.217777,-24.713352,-59.321045,17.262389
1783968023.9182,11:40:23.918,22,false,0.622824,-0.313232,0.543762,0.467224,0.993179,-0.113283,-0.214359,-24.754262,-59.280754,17.315657
1783968023.9496,11:40:23.949,23,false,0.622854,-0.313293,0.54364,0.467285,0.989273,-0.124025,-0.225101,-24.701358,-59.304308,17.348645
1783968023.9809,11:40:23.980,24,false,0.622992,-0.312988,0.543762,0.467163,0.98146,-0.138674,-0.222171,-24.758421,-59.400275,17.378334
1783968024.012,11:40:24.012,25,false,0.622947,-0.312988,0.543762,0.467224,0.979995,-0.123049,-0.212406,-24.764917,-59.396923,17.3901
1783968024.0432,11:40:24.043,26,false,0.622871,-0.312927,0.543884,0.467224,0.988785,-0.125978,-0.212406,-24.636178,-59.33409,17.445551
1783968024.0743,11:40:24.074,27,false,0.623154,-0.3125,0.544067,0.466919,0.976089,-0.124025,-0.221683,-24.669852,-59.35231,17.465549
1783968024.1055,11:40:24.105,28,false,0.623299,-0.312378,0.544128,0.466736,0.978531,-0.120607,-0.220218,-24.774928,-59.443477,17.558317
1783968024.1366,11:40:24.136,29,false,0.623314,-0.312439,0.544128,0.466675,0.972671,-0.117678,-0.212406,-24.779773,-59.435804,17.507223
1783968024.1679,11:40:24.167,30,false,0.623368,-0.312439,0.544067,0.466675,0.989761,-0.102541,-0.21973,-24.963579,-59.384037,17.431331
1783968024.1993,11:40:24.199,31,false,0.623245,-0.312622,0.543945,0.466858,0.975601,-0.120119,-0.21973,-24.949559,-59.337447,17.363028
1783968024.2306,11:40:24.230,0,false,0.623451,-0.312378,0.544006,0.466675,0.983902,-0.121096,-0.223148,-25.026664,-59.355331,17.525863
1783968024.262,11:40:24.262,1,false,0.623353,-0.312378,0.544067,0.466736,0.98146,-0.129885,-0.209964,-24.931566,-59.431243,17.478015
1783968024.2933,11:40:24.293,2,false,0.623253,-0.3125,0.544006,0.466858,0.980484,-0.12549,-0.209476,-24.950655,-59.320116,17.50972
1783968024.3244,11:40:24.324,3,false,0.62326,-0.312683,0.543945,0.466797,0.980484,-0.12549,-0.207523,-24.878111,-59.384595,17.448532
1783968024.3558,11:40:24.355,4,false,0.623159,-0.313232,0.54364,0.466919,0.977554,-0.122072,-0.217288,-24.797869,-59.45758,17.378509
1783968024.3869,11:40:24.386,5,false,0.62315,-0.31366,0.543457,0.466858,0.973159,-0.125978,-0.214359,-24.905096,-59.523266,17.494935
1783968024.418,11:40:24.418,6,false,0.623384,-0.313965,0.543274,0.466553,0.983902,-0.10547,-0.212894,-24.867017,-59.522569,17.465133
1783968024.4492,11:40:24.449,7,false,0.623699,-0.314636,0.542786,0.466248,0.979995,-0.110842,-0.215824,-24.832745,-59.566802,17.557942
1783968024.4803,11:40:24.480,8,false,0.623849,-0.314941,0.542542,0.466125,0.979019,-0.1084,-0.228031,-24.831808,-59.501935,17.581655
1783968024.5115,11:40:24.511,9,false,0.624316,-0.315369,0.542175,0.465637,0.996597,-0.107424,-0.218753,-24.801057,-59.428602,17.617951
1783968024.5428,11:40:24.542,10,false,0.62462,-0.315308,0.542175,0.465271,0.98146,-0.118166,-0.224613,-24.803289,-59.24297,17.74034
1783968024.5741,11:40:24.574,11,false,0.624763,-0.315369,0.542236,0.464966,0.978042,-0.116701,-0.223148,-24.954837,-59.255348,17.715905
1783968024.6055,11:40:24.605,12,false,0.624809,-0.315369,0.542236,0.464905,0.974136,-0.117189,-0.210452,-25.106183,-59.251535,17.664006
1783968024.6368,11:40:24.636,13,false,0.624976,-0.315308,0.542236,0.464722,0.973648,-0.118654,-0.215335,-25.122764,-59.128472,17.617297
1783968024.6682,11:40:24.668,14,false,0.625005,-0.315369,0.542114,0.464783,0.980484,-0.107912,-0.225101,-25.182548,-59.212115,17.650029
1783968024.6995,11:40:24.699,15,false,0.624815,-0.315491,0.542053,0.465027,0.983413,-0.118654,-0.220218,-25.116723,-59.137856,17.649579
1783968024.7308,11:40:24.730,16,false,0.624968,-0.315369,0.542053,0.464905,0.994644,-0.107424,-0.2168,-25.177112,-59.145791,17.544498
1783968024.762,11:40:24.762,17,false,0.625034,-0.315552,0.54187,0.464905,0.979019,-0.108888,-0.2168,-25.30623,-59.227703,17.479832
1783968024.7931,11:40:24.793,18,false,0.625153,-0.315735,0.541626,0.464905,0.992691,-0.115236,-0.210452,-25.302807,-59.151884,17.421633
1783968024.8242,11:40:24.824,19,false,0.625106,-0.315857,0.541504,0.465027,0.978042,-0.100587,-0.21973,-25.224956,-59.113556,17.369254
1783968024.8554,11:40:24.855,20,false,0.62513,-0.315796,0.541565,0.464966,0.984878,-0.1084,-0.21973,-25.259567,-59.034198,17.381928
1783968024.8865,11:40:24.886,21,false,0.625441,-0.315613,0.541626,0.4646,0.986343,-0.104005,-0.221683,-25.186041,-58.8581,17.438196
1783968024.9179,11:40:24.917,22,false,0.625418,-0.315674,0.541565,0.464661,0.980972,-0.107424,-0.222171,-25.149774,-58.864103,17.548653
1783968024.9492,11:40:24.949,23,false,0.625431,-0.315857,0.541443,0.464661,0.982925,-0.105959,-0.217288,-25.281627,-58.899414,17.453664
1783968024.9805,11:40:24.980,24,false,0.625424,-0.315857,0.541504,0.4646,0.988785,-0.10547,-0.204105,-25.280663,-58.886332,17.323312
1783968025.0119,11:40:25.011,25,false,0.625538,-0.315796,0.541565,0.464417,0.980972,-0.1084,-0.218753,-25.384473,-58.934374,17.475165
1783968025.0432,11:40:25.043,26,false,0.625712,-0.315735,0.541504,0.464294,0.988785,-0.099611,-0.221683,-25.283502,-58.93275,17.432387
1783968025.0744,11:40:25.074,27,false,0.625598,-0.315796,0.541443,0.464478,0.968765,-0.106447,-0.210941,-25.312259,-58.901381,17.319117
1783968025.1055,11:40:25.105,28,false,0.625816,-0.315857,0.54126,0.464355,0.993668,-0.107912,-0.223636,-25.33814,-58.843241,17.336804
1783968025.1366,11:40:25.136,29,false,0.625762,-0.315979,0.541199,0.464417,0.98146,-0.103029,-0.220706,-25.331525,-58.985315,17.322816
1783968025.1678,11:40:25.167,30,false,0.625784,-0.31604,0.541138,0.464417,0.989761,-0.098634,-0.215335,-25.355479,-59.053366,17.370041
1783968025.1989,11:40:25.198,31,false,0.625845,-0.315979,0.54126,0.464233,0.986831,-0.104005,-0.215335,-25.347131,-59.024889,17.322821
1783968025.2301,11:40:25.230,0,false,0.6258,-0.315979,0.54126,0.464294,0.98146,-0.112795,-0.218753,-25.444294,-59.088983,17.265369
1783968025.2612,11:40:25.261,1,false,0.625879,-0.316284,0.540833,0.464478,0.971206,-0.107912,-0.219242,-25.427063,-59.027037,17.258524
1783968025.2923,11:40:25.292,2,false,0.626083,-0.316284,0.540649,0.464417,0.985855,-0.100587,-0.224613,-25.262018,-58.971285,17.297225
1783968025.3237,11:40:25.323,3,false,0.626258,-0.316101,0.54071,0.464233,0.991226,-0.104982,-0.218753,-25.382646,-58.84634,17.436733
1783968025.355,11:40:25.355,4,false,0.626622,-0.315918,0.54071,0.463867,0.981949,-0.096681,-0.224125,-25.416442,-58.733888,17.457613
1783968025.3863,11:40:25.386,5,false,0.626774,-0.315796,0.54071,0.463745,0.98439,-0.109865,-0.220218,-25.372089,-58.707452,17.476405
1783968025.4177,11:40:25.417,6,false,0.626917,-0.315796,0.540649,0.463623,0.980484,-0.103517,-0.223636,-25.317218,-58.698612,17.433502
1783968025.449,11:40:25.449,7,false,0.626886,-0.315857,0.540649,0.463623,0.992203,-0.097169,-0.225101,-25.282788,-58.600934,17.409844
1783968025.4802,11:40:25.480,8,false,0.626892,-0.315979,0.540466,0.463745,0.977066,-0.099611,-0.211917,-25.311616,-58.602746,17.34369
1783968025.5113,11:40:25.511,9,false,0.627013,-0.315918,0.540466,0.463623,0.980972,-0.104494,-0.22266,-25.2927,-58.679147,17.463597
1783968025.5424,11:40:25.542,10,false,0.627104,-0.315918,0.540466,0.463501,0.978042,-0.106935,-0.225589,-25.320537,-58.703046,17.421975
1783968025.5736,11:40:25.573,11,false,0.627093,-0.316162,0.540283,0.463562,0.982925,-0.101076,-0.224125,-25.240913,-58.679693,17.444331
1783968025.6047,11:40:25.604,12,false,0.627017,-0.316223,0.540283,0.463623,0.981949,-0.10547,-0.222171,-25.244021,-58.688583,17.389682
1783968025.6359,11:40:25.635,13,false,0.62707,-0.316223,0.540222,0.463623,0.985367,-0.101076,-0.227054,-25.321587,-58.621816,17.370406
1783968025.667,11:40:25.667,14,false,0.627213,-0.316223,0.540161,0.463501,0.982437,-0.095705,-0.225101,-25.361489,-58.531817,17.472687
1783968025.6983,11:40:25.698,15,false,0.627422,-0.316284,0.540039,0.463318,0.990249,-0.099123,-0.229007,-25.457216,-58.465772,17.475018
1783968025.7297,11:40:25.729,16,false,0.627464,-0.316528,0.539795,0.463379,0.990249,-0.104494,-0.217288,-25.42374,-58.511008,17.402347
1783968025.761,11:40:25.761,17,false,0.627585,-0.316467,0.539795,0.463257,0.98439,-0.092775,-0.2168,-25.333796,-58.506859,17.501434
1783968025.7923,11:40:25.792,18,false,0.627743,-0.316406,0.539856,0.463013,0.987808,-0.101076,-0.220706,-25.327616,-58.533033,17.470983
1783968025.8237,11:40:25.823,19,false,0.627576,-0.316589,0.539734,0.463257,0.977066,-0.109865,-0.215824,-25.42673,-58.541636,17.353853
1783968025.8548,11:40:25.854,20,false,0.62759,-0.31665,0.539734,0.463196,0.98439,-0.101076,-0.223148,-25.471072,-58.579286,17.397975
1783968025.8862,11:40:25.886,21,false,0.627468,-0.316833,0.539612,0.463379,0.988785,-0.096193,-0.225589,-25.346487,-58.49354,17.243285
1783968025.9173,11:40:25.917,22,false,0.62752,-0.316833,0.539551,0.463379,0.979507,-0.102541,-0.226078,-25.294176,-58.580861,17.373233
1783968025.9484,11:40:25.948,23,false,0.627397,-0.317017,0.539429,0.463562,0.978042,-0.106447,-0.214847,-25.321865,-58.480004,17.265878
1783968025.9796,11:40:25.979,24,false,0.627253,-0.317139,0.539368,0.463745,0.980484,-0.11133,-0.225101,-25.316878,-58.628494,17.154305
1783968026.0107,11:40:26.010,25,false,0.627014,-0.317505,0.539063,0.464172,0.980484,-0.099611,-0.217288,-25.282482,-58.612596,17.158566
1783968026.0418,11:40:26.041,26,false,0.62699,-0.317566,0.539001,0.464233,0.977554,-0.103517,-0.223148,-25.251525,-58.747827,17.132494
1783968026.0732,11:40:26.073,27,false,0.626781,-0.317932,0.538818,0.464478,0.977554,-0.096193,-0.221195,-25.163849,-58.660181,17.228659
1783968026.1045,11:40:26.104,28,false,0.626803,-0.317993,0.538757,0.464478,0.976089,-0.096193,-0.2168,-25.219525,-58.641115,17.120808
1783968026.1359,11:40:26.135,29,false,0.626703,-0.318115,0.538696,0.4646,0.992203,-0.090822,-0.224125,-25.120094,-58.653863,17.098511
1783968026.1672,11:40:26.167,30,false,0.626648,-0.318237,0.538635,0.464661,0.979019,-0.090822,-0.218753,-25.135284,-58.665337,17.183121
1783968026.1985,11:40:26.198,31,false,0.626769,-0.318176,0.538635,0.464539,0.972183,-0.103517,-0.218753,-25.148955,-58.600893,17.229362
1783968026.2297,11:40:26.229,0,false,0.626822,-0.318176,0.538574,0.464539,0.979995,-0.100587,-0.226078,-25.236028,-58.692433,17.19621
1783968026.261,11:40:26.261,1,false,0.626943,-0.318115,0.538574,0.464417,0.9673,-0.101564,-0.219242,-25.344301,-58.715003,17.256096
1783968026.2922,11:40:26.292,2,false,0.627065,-0.318054,0.538574,0.464294,0.972183,-0.104982,-0.227054,-25.486609,-58.720363,17.250179
1783968026.3233,11:40:26.323,3,false,0.627079,-0.318115,0.538574,0.464233,0.989273,-0.095705,-0.220706,-25.495055,-58.74014,17.125222
1783968026.3544,11:40:26.354,4,false,0.626977,-0.318359,0.538391,0.464417,0.991226,-0.102052,-0.227054,-25.442841,-58.862616,17.102484
1783968026.3856,11:40:26.385,5,false,0.626943,-0.318542,0.538269,0.464478,0.982925,-0.10547,-0.229984,-25.485571,-58.808353,17.096973
1783968026.4167,11:40:26.416,6,false,0.62701,-0.318604,0.538208,0.464417,0.983902,-0.091798,-0.223636,-25.344583,-58.759516,17.136875
1783968026.4481,11:40:26.448,7,false,0.627031,-0.318665,0.538147,0.464417,0.980972,-0.087892,-0.21973,-25.382185,-58.805285,17.112972
1783968026.4794,11:40:26.479,8,false,0.627052,-0.318726,0.538086,0.464417,0.969741,-0.11133,-0.225589,-25.401073,-58.861432,17.151274
1783968026.5107,11:40:26.510,9,false,0.627052,-0.318726,0.538086,0.464417,0.976089,-0.095216,-0.215824,-25.373211,-58.732518,17.140885
1783968026.5421,11:40:26.542,10,false,0.627119,-0.318726,0.537903,0.464539,0.995621,-0.106935,-0.22266,-25.333182,-58.736126,17.11658
1783968026.5733,11:40:26.573,11,false,0.627357,-0.318481,0.538086,0.464172,0.990738,-0.099611,-0.224613,-25.147617,-58.634696,17.348922
1783968026.6044,11:40:26.604,12,false,0.627664,-0.318115,0.538208,0.463867,0.985367,-0.116213,-0.228519,-25.189962,-58.528455,17.393537
1783968026.6356,11:40:26.635,13,false,0.627617,-0.318237,0.538086,0.463989,0.989761,-0.09131,-0.229984,-25.183211,-58.507608,17.179475
1783968026.6667,11:40:26.666,14,false,0.627662,-0.318237,0.538086,0.463928,0.981949,-0.096193,-0.231937,-25.147228,-58.518753,17.241034
1783968026.6979,11:40:26.697,15,false,0.627804,-0.318237,0.538025,0.463806,0.986343,-0.098634,-0.225101,-25.159704,-58.43906,17.176807
1783968026.729,11:40:26.729,16,false,0.62778,-0.318298,0.537964,0.463867,0.983902,-0.105959,-0.229984,-25.170933,-58.516876,17.298449
1783968026.7601,11:40:26.760,17,false,0.627978,-0.318176,0.537964,0.463684,0.978042,-0.104005,-0.226566,-25.2259,-58.467279,17.288296
1783968026.7913,11:40:26.791,18,false,0.627733,-0.31842,0.537842,0.463989,0.992691,-0.100587,-0.225589,-25.080971,-58.467503,17.279158
1783968026.8226,11:40:26.822,19,false,0.627619,-0.318481,0.537781,0.464172,0.980484,-0.087404,-0.225101,-25.055212,-58.452751,17.330749
1783968026.854,11:40:26.854,20,false,0.627507,-0.31842,0.537842,0.464294,0.973648,-0.103029,-0.222171,-25.151659,-58.379658,17.257551
1783968026.8853,11:40:26.885,21,false,0.627486,-0.318359,0.537903,0.464294,0.974624,-0.099611,-0.228519,-25.208554,-58.538183,17.296349
1783968026.9166,11:40:26.916,22,false,0.627319,-0.31842,0.537903,0.464478,0.980484,-0.090822,-0.218753,-25.035452,-58.561224,17.406037
1783968026.948,11:40:26.948,23,false,0.627388,-0.318359,0.537964,0.464355,0.976577,-0.093751,-0.225589,-25.133875,-58.626823,17.504756
1783968026.9793,11:40:26.979,24,false,0.627436,-0.318237,0.538086,0.464233,0.992691,-0.101564,-0.21973,-25.132733,-58.596139,17.533787
1783968027.0106,11:40:27.010,25,false,0.627255,-0.318237,0.538086,0.464478,0.96144,-0.096193,-0.227543,-25.101797,-58.628339,17.559916
1783968027.0418,11:40:27.041,26,false,0.627277,-0.318298,0.538025,0.464478,0.993668,-0.09424,-0.229007,-25.193586,-58.612457,17.418939
1783968027.0729,11:40:27.072,27,false,0.626865,-0.318665,0.538025,0.464783,0.976089,-0.10547,-0.223636,-25.126657,-58.523394,17.396737
1783968027.1041,11:40:27.104,28,false,0.626562,-0.318787,0.538147,0.464966,0.986343,-0.097169,-0.22266,-25.171098,-58.53296,17.43657
1783968027.1352,11:40:27.135,29,false,0.626147,-0.318787,0.538208,0.465454,0.973648,-0.1084,-0.219242,-25.136326,-58.436893,17.397651
1783968027.1665,11:40:27.166,30,false,0.626226,-0.318604,0.53833,0.465332,0.974624,-0.11133,-0.223636,-25.149893,-58.440156,17.452347
1783968027.1979,11:40:27.197,31,false,0.626333,-0.318481,0.53833,0.465271,0.988296,-0.099123,-0.222171,-25.042472,-58.308508,17.486619
1783968027.2292,11:40:27.229,0,false,0.626142,-0.318604,0.538269,0.465515,0.991226,-0.104982,-0.217777,-24.960747,-58.324609,17.397834
1783968027.2606,11:40:27.260,1,false,0.626149,-0.318604,0.538208,0.465576,0.970718,-0.103029,-0.224125,-24.872241,-58.458731,17.512327
1783968027.2919,11:40:27.291,2,false,0.626235,-0.31842,0.538269,0.465515,0.989273,-0.100099,-0.229496,-24.912216,-58.489717,17.525647
1783968027.3232,11:40:27.323,3,false,0.626354,-0.318481,0.538147,0.465454,0.979995,-0.09424,-0.229007,-25.067824,-58.442836,17.462867
1783968027.3544,11:40:27.354,4,false,0.626369,-0.318542,0.538147,0.465393,0.988785,-0.094728,-0.222171,-25.04338,-58.385689,17.316641
1783968027.3855,11:40:27.385,5,false,0.626285,-0.318542,0.538086,0.465576,0.975113,-0.104982,-0.218265,-25.275595,-58.379118,17.364484
1783968027.4166,11:40:27.416,6,false,0.626132,-0.318665,0.538086,0.465698,0.994156,-0.104005,-0.222171,-25.350004,-58.492836,17.287912
1783968027.4478,11:40:27.447,7,false,0.625872,-0.318909,0.538086,0.465881,0.978531,-0.098634,-0.232914,-25.297341,-58.535366,17.263859
1783968027.4789,11:40:27.478,8,false,0.625826,-0.318909,0.538086,0.465942,0.986831,-0.096193,-0.222171,-25.205083,-58.543735,17.137534
1783968027.5101,11:40:27.510,9,false,0.625656,-0.319153,0.538086,0.466003,0.981949,-0.095705,-0.235355,-25.19682,-58.52136,17.203288
1783968027.5412,11:40:27.541,10,false,0.625771,-0.319092,0.538147,0.46582,0.98439,-0.105959,-0.218753,-25.189383,-58.561037,17.157789
1783968027.5725,11:40:27.572,11,false,0.62574,-0.319153,0.538147,0.46582,0.986343,-0.099611,-0.224125,-25.167737,-58.581793,17.161702
1783968027.6039,11:40:27.603,12,false,0.625606,-0.319519,0.538086,0.46582,0.980484,-0.101076,-0.225101,-25.20807,-58.555612,17.015685
1783968027.6352,11:40:27.635,13,false,0.625648,-0.319641,0.537964,0.46582,0.986343,-0.100099,-0.214359,-25.393908,-58.591864,16.944085
1783968027.6666,11:40:27.666,14,false,0.625499,-0.319885,0.537781,0.466064,0.980972,-0.098146,-0.215335,-25.411624,-58.624491,16.999276
1783968027.6979,11:40:27.697,15,false,0.625545,-0.319885,0.537781,0.466003,0.98439,-0.096193,-0.217777,-25.382707,-58.549179,16.869502
1783968027.729,11:40:27.729,16,false,0.625611,-0.319946,0.53772,0.465942,0.996109,-0.101564,-0.226566,-25.446405,-58.690751,16.977013
1783968027.7602,11:40:27.760,17,false,0.625873,-0.319763,0.537842,0.465576,0.979507,-0.093751,-0.216312,-25.428964,-58.623767,16.894326
1783968027.7913,11:40:27.791,18,false,0.625841,-0.319824,0.537842,0.465576,0.986831,-0.100587,-0.215335,-25.323543,-58.593388,16.909632
1783968027.8224,11:40:27.822,19,false,0.625817,-0.319885,0.537781,0.465637,0.986343,-0.091798,-0.226566,-25.213711,-58.506232,16.833683
1783968027.8536,11:40:27.853,20,false,0.625762,-0.320007,0.53772,0.465698,0.985855,-0.096193,-0.2168,-25.294309,-58.502561,16.76533
1783968027.8847,11:40:27.884,21,false,0.625616,-0.320129,0.537659,0.465881,0.976577,-0.102541,-0.217288,-25.336938,-58.574026,16.808489
1783968027.9159,11:40:27.915,22,false,0.625839,-0.319946,0.53772,0.465637,0.975113,-0.103029,-0.228519,-25.330444,-58.488806,16.817424
1783968027.9472,11:40:27.947,23,false,0.625891,-0.319946,0.537659,0.465637,0.980484,-0.093751,-0.223636,-25.36946,-58.442016,16.750696
1783968027.9785,11:40:27.978,24,false,0.626149,-0.319885,0.537659,0.465332,0.975113,-0.091798,-0.233402,-25.434483,-58.444767,16.914949
1783968028.0099,11:40:28.009,25,false,0.626486,-0.319641,0.537781,0.464905,0.983902,-0.081056,-0.223636,-25.478049,-58.432288,17.032869
1783968028.0412,11:40:28.041,26,false,0.626507,-0.319702,0.53772,0.464905,0.977554,-0.098146,-0.224613,-25.412582,-58.675273,16.929643
1783968028.0726,11:40:28.072,27,false,0.626775,-0.319519,0.537781,0.4646,0.983902,-0.10547,-0.227054,-25.368615,-58.729467,17.03114
1783968028.1039,11:40:28.103,28,false,0.626751,-0.31958,0.53772,0.464661,0.979019,-0.090822,-0.224613,-25.433722,-58.628703,17.01781
1783968028.1352,11:40:28.135,29,false,0.626817,-0.319641,0.537659,0.4646,0.985855,-0.086427,-0.234379,-25.641857,-58.612785,16.975905
1783968028.1666,11:40:28.166,30,false,0.627029,-0.31958,0.537659,0.464355,0.980484,-0.088869,-0.2168,-25.560009,-58.583504,17.132591
1783968028.1977,11:40:28.197,31,false,0.627151,-0.319519,0.537659,0.464233,0.992203,-0.081544,-0.21973,-25.561115,-58.58706,17.049301
1783968028.2288,11:40:28.228,0,false,0.627455,-0.319336,0.537781,0.463806,0.975113,-0.089357,-0.22266,-25.577064,-58.530444,17.183693
1783968028.26,11:40:28.260,1,false,0.627501,-0.319336,0.537781,0.463745,0.976577,-0.09131,-0.226566,-25.501695,-58.539306,17.170062
1783968028.2911,11:40:28.291,2,false,0.627881,-0.319092,0.537903,0.463257,0.985855,-0.097169,-0.228519,-25.658171,-58.397743,17.202655
1783968028.3225,11:40:28.322,3,false,0.628023,-0.319092,0.537842,0.463135,0.983902,-0.085939,-0.221683,-25.604599,-58.315197,17.231989
1783968028.3538,11:40:28.353,4,false,0.627899,-0.319275,0.53772,0.463318,1.000015,-0.081544,-0.228519,-25.451708,-58.240906,17.213528
1783968028.3851,11:40:28.385,5,false,0.628079,-0.319275,0.53772,0.463074,0.992203,-0.082521,-0.222171,-25.463644,-58.203952,17.196913
1783968028.4165,11:40:28.416,6,false,0.627892,-0.319275,0.537781,0.463257,0.991226,-0.099611,-0.225589,-25.354756,-58.140786,17.18196
1783968028.4478,11:40:28.447,7,false,0.627493,-0.319336,0.537842,0.463684,0.977554,-0.104982,-0.219242,-25.196941,-58.054029,17.004009
1783968028.479,11:40:28.479,8,false,0.627469,-0.319397,0.537781,0.463745,0.967788,-0.103029,-0.218265,-25.189492,-58.005855,16.933577
1783968028.5103,11:40:28.510,9,false,0.627532,-0.319275,0.537781,0.463745,0.996597,-0.101564,-0.220218,-25.167834,-57.977452,17.004773
1783968028.5414,11:40:28.541,10,false,0.627522,-0.319397,0.53772,0.463745,0.982925,-0.093751,-0.216312,-25.163296,-57.966844,17.053895
1783968028.5726,11:40:28.572,11,false,0.627477,-0.319397,0.53772,0.463806,0.995132,-0.097169,-0.218265,-25.204074,-58.061973,16.978474
1783968028.6037,11:40:28.603,12,false,0.62736,-0.31958,0.537537,0.46405,0.98146,-0.092287,-0.224125,-25.180958,-58.057866,16.940503
1783968028.6348,11:40:28.634,13,false,0.627512,-0.319458,0.537537,0.463928,0.98439,-0.102052,-0.223148,-25.219969,-58.039216,16.921283
