Timestamp,Local time,Counter,Interpolated,Accelerometer X,Accelerometer Y,Accelerometer Z,Magnetometer X,Magnetometer Y,Magnetometer Z,Quaternion 0,Quaternion 1,Quaternion 2,Quaternion 3
1784747397.3374,12:09:57.337,9,false,0.593077,-0.312073,0.595642,0.44281,0.99855,-0.158206,-0.096193,-26.528877,-61.689249,24.100981
1784747397.3687,12:09:57.368,10,false,0.592918,-0.312378,0.595459,0.443054,0.989761,-0.150881,-0.110353,-26.582634,-61.756076,23.978821
1784747397.4001,12:09:57.400,11,false,0.592947,-0.312439,0.595398,0.443054,0.980484,-0.14551,-0.095216,-26.601109,-61.681636,23.988507
1784747397.4314,12:09:57.431,12,false,0.592977,-0.312439,0.595459,0.442932,1.002457,-0.166506,-0.090822,-26.438289,-61.719317,23.952363
1784747397.4627,12:09:57.462,13,false,0.592948,-0.312378,0.59552,0.442932,0.991714,-0.160159,-0.095705,-26.51606,-61.603691,23.994603
1784747397.4939,12:09:57.493,14,false,0.593045,-0.312134,0.595642,0.44281,0.980484,-0.162112,-0.099123,-26.601007,-61.559443,24.017665
1784747397.525,12:09:57.525,15,false,0.592941,-0.312012,0.595764,0.442871,1.002457,-0.159182,-0.093263,-26.468105,-61.654204,24.098236
1784747397.5561,12:09:57.556,16,false,0.593081,-0.31189,0.595825,0.442688,0.990738,-0.157717,-0.103517,-26.453171,-61.530136,23.931489
1784747397.5873,12:09:57.587,17,false,0.59311,-0.311951,0.595764,0.442688,0.99855,-0.168948,-0.106935,-26.394868,-61.538105,23.886093
1784747397.6184,12:09:57.618,18,false,0.593064,-0.311951,0.595764,0.442749,0.994644,-0.170413,-0.090822,-26.417165,-61.649954,23.949914
1784747397.6496,12:09:57.649,19,false,0.593064,-0.311951,0.595764,0.442749,0.991714,-0.14844,-0.098634,-26.526955,-61.541264,23.962491
1784747397.6807,12:09:57.680,20,false,0.593236,-0.311768,0.595825,0.442566,0.984878,-0.1626,-0.097658,-26.595859,-61.488305,24.003718
1784747397.712,12:09:57.712,21,false,0.593252,-0.311768,0.595764,0.442627,0.990738,-0.169924,-0.104494,-26.642918,-61.306057,23.921192
1784747397.7434,12:09:57.743,22,false,0.593294,-0.31189,0.595703,0.442566,0.99855,-0.163088,-0.096681,-26.550687,-61.127081,23.966549
1784747397.7747,12:09:57.774,23,false,0.593417,-0.311829,0.595703,0.442444,0.99855,-0.148928,-0.093751,-26.557402,-61.280032,24.067185
1784747397.8061,12:09:57.806,24,false,0.593307,-0.312012,0.595581,0.442627,0.993668,-0.15967,-0.102052,-26.563446,-61.313012,24.00822
1784747397.8374,12:09:57.837,25,false,0.593278,-0.311951,0.595642,0.442627,0.985367,-0.169924,-0.095216,-26.688516,-61.342693,24.104689
1784747397.8685,12:09:57.868,26,false,0.593479,-0.311829,0.595642,0.442444,0.991714,-0.158694,-0.094728,-26.771171,-61.309591,24.131697
1784747397.8999,12:09:57.899,27,false,0.59354,-0.311768,0.595703,0.442322,0.995132,-0.160159,-0.099123,-26.651161,-61.339615,24.111142
1784747397.931,12:09:57.931,28,false,0.593663,-0.311707,0.595703,0.4422,0.995621,-0.157229,-0.093263,-26.617921,-61.396544,24.152457
1784747397.9622,12:09:57.962,29,false,0.593644,-0.31189,0.595581,0.442261,0.985367,-0.141604,-0.087404,-26.602959,-61.387964,24.219549
1784747397.9933,12:09:57.993,30,false,0.593987,-0.311462,0.595825,0.441772,0.983902,-0.146975,-0.102052,-26.604447,-61.440058,24.324794
1784747398.0244,12:09:58.024,31,false,0.594032,-0.311523,0.595703,0.441833,0.993668,-0.142092,-0.102052,-26.62074,-61.352358,24.150344
1784747398.0556,12:09:58.055,0,false,0.594032,-0.311523,0.595703,0.441833,0.991714,-0.154299,-0.105959,-26.605496,-61.24352,24.172786
1784747398.0869,12:09:58.086,1,false,0.594262,-0.311401,0.595764,0.441528,0.999039,-0.150393,-0.095216,-26.756268,-61.205382,24.17803
1784747398.1183,12:09:58.118,2,false,0.594307,-0.311401,0.595764,0.441467,1.002457,-0.153323,-0.101076,-26.637748,-61.200965,24.10798
1784747398.1496,12:09:58.149,3,false,0.594433,-0.311157,0.595947,0.441223,0.989761,-0.161624,-0.096681,-26.635757,-61.167082,24.119704
1784747398.1809,12:09:58.180,4,false,0.594539,-0.311157,0.595886,0.441162,0.980484,-0.15967,-0.098146,-26.559196,-61.136587,24.100348
1784747398.2123,12:09:58.212,5,false,0.594382,-0.311401,0.595825,0.441284,0.996597,-0.145022,-0.090822,-26.460383,-61.183911,24.082928
1784747398.2434,12:09:58.243,6,false,0.594366,-0.311462,0.595764,0.441345,0.992203,-0.161135,-0.093751,-26.416313,-61.196595,24.037342
1784747398.2746,12:09:58.274,7,false,0.594333,-0.311584,0.595642,0.441467,0.991226,-0.161135,-0.093751,-26.481327,-61.237918,24.026223
1784747398.3057,12:09:58.305,8,false,0.594333,-0.311584,0.595642,0.441467,0.994156,-0.153811,-0.100099,-26.435163,-61.319971,23.926492
1784747398.3368,12:09:58.336,9,false,0.59424,-0.311707,0.595581,0.441589,0.987808,-0.146487,-0.101076,-26.214169,-61.289141,23.971319
1784747398.368,12:09:58.368,10,false,0.594408,-0.311707,0.595459,0.441528,0.998062,-0.155276,-0.102052,-26.179767,-61.321209,23.996709
1784747398.3991,12:09:58.399,11,false,0.594453,-0.311707,0.595459,0.441467,0.999039,-0.155276,-0.094728,-26.193666,-61.379979,24.09433
1784747398.4305,12:09:58.430,12,false,0.594079,-0.312134,0.595337,0.441833,0.987808,-0.152834,-0.095216,-26.295899,-61.373056,24.092465
1784747398.4618,12:09:58.461,13,false,0.594124,-0.312134,0.595337,0.441772,0.990738,-0.152346,-0.095705,-26.343046,-61.366825,24.045926
1784747398.4931,12:09:58.493,14,false,0.594033,-0.312134,0.595337,0.441895,0.989273,-0.163577,-0.103029,-26.295756,-61.241587,24.033948
1784747398.5245,12:09:58.524,15,false,0.593956,-0.312195,0.595337,0.441956,0.989273,-0.171878,-0.097169,-26.223288,-61.383088,23.978306
1784747398.5558,12:09:58.555,16,false,0.594033,-0.312134,0.595337,0.441895,0.992203,-0.151369,-0.107424,-26.337512,-61.480531,24.032906
1784747398.5872,12:09:58.587,17,false,0.594063,-0.312134,0.595398,0.441772,1.004898,-0.149416,-0.084474,-26.365544,-61.418691,24.082045
1784747398.6185,12:09:58.618,18,false,0.593999,-0.312256,0.595398,0.441772,0.999039,-0.156252,-0.100099,-26.256189,-61.452759,24.036548
1784747398.6496,12:09:58.649,19,false,0.594015,-0.312195,0.595459,0.441711,0.984878,-0.164065,-0.100587,-26.292354,-61.393696,23.92083
1784747398.6808,12:09:58.680,20,false,0.593921,-0.312317,0.595398,0.441833,1.003433,-0.160159,-0.099123,-26.309949,-61.310633,23.861547
1784747398.7119,12:09:58.711,21,false,0.593921,-0.312317,0.595398,0.441833,1.000992,-0.161624,-0.088869,-26.490276,-61.340552,23.793237
1784747398.743,12:09:58.743,22,false,0.593812,-0.312439,0.595398,0.441895,0.986831,-0.152834,-0.088869,-26.517986,-61.382433,23.821482
1784747398.7742,12:09:58.774,23,false,0.593734,-0.3125,0.595398,0.441956,0.987808,-0.160647,-0.095216,-26.438248,-61.420126,23.802041
1784747398.8053,12:09:58.805,24,false,0.593657,-0.312561,0.595398,0.442017,0.996109,-0.149905,-0.098146,-26.471161,-61.45405,23.829405
1784747398.8367,12:09:58.836,25,false,0.593407,-0.312805,0.595337,0.442261,1.00734,-0.163577,-0.092287,-26.605459,-61.544397,23.689541
1784747398.868,12:09:58.868,26,false,0.592998,-0.313354,0.595093,0.442749,0.994156,-0.157717,-0.07715,-26.651559,-61.506079,23.713202
1784747398.8993,12:09:58.899,27,false,0.592881,-0.313721,0.594971,0.44281,0.985855,-0.145022,-0.087404,-26.66314,-61.531407,23.674681
1784747398.9307,12:09:58.930,28,false,0.592702,-0.314148,0.594788,0.442993,0.996109,-0.155764,-0.093263,-26.568887,-61.628972,23.610104
1784747398.962,12:09:58.962,29,false,0.592318,-0.314819,0.59436,0.443604,0.992691,-0.152346,-0.085939,-26.543875,-61.627058,23.566939
1784747398.9934,12:09:58.993,30,false,0.592111,-0.315125,0.594177,0.443909,0.989273,-0.161135,-0.084474,-26.536317,-61.744965,23.513137
1784747399.0245,12:09:59.024,31,false,0.591971,-0.315186,0.594238,0.44397,1.00148,-0.161624,-0.085451,-26.6641,-61.806221,23.584345
1784747399.0556,12:09:59.055,0,false,0.591988,-0.315125,0.594299,0.443909,0.992203,-0.15967,-0.087404,-26.599658,-61.831443,23.588618
1784747399.0868,12:09:59.086,1,false,0.591845,-0.315308,0.594116,0.444214,1.000015,-0.14844,-0.091798,-26.496799,-61.809281,23.682186
1784747399.1179,12:09:59.117,2,false,0.591836,-0.315125,0.593994,0.444519,0.993668,-0.158694,-0.08838,-26.493949,-61.654751,23.616859
1784747399.1491,12:09:59.149,3,false,0.591752,-0.31488,0.593933,0.444885,0.982437,-0.156252,-0.089357,-26.506338,-61.57549,23.677695
1784747399.1802,12:09:59.180,4,false,0.591557,-0.314758,0.593689,0.445557,0.978531,-0.160159,-0.089845,-26.637119,-61.6836,23.762356
1784747399.2115,12:09:59.211,5,false,0.59114,-0.314758,0.592957,0.447083,0.995132,-0.1626,-0.09131,-26.620237,-61.765946,23.823596
1784747399.2429,12:09:59.242,6,false,0.590731,-0.31488,0.592285,0.448425,1.000504,-0.178225,-0.091798,-26.545228,-61.705472,23.833851
1784747399.2742,12:09:59.274,7,false,0.590326,-0.31543,0.59082,0.4505,0.984878,-0.185061,-0.107912,-26.447812,-61.621139,23.768312
1784747399.3056,12:09:59.305,8,false,0.590311,-0.315735,0.590393,0.450867,1.003922,-0.17969,-0.099611,-26.300322,-61.560192,23.828957
1784747399.3369,12:09:59.336,9,false,0.590358,-0.316711,0.589355,0.451477,0.996109,-0.169436,-0.107424,-26.347028,-61.580109,23.704091
1784747399.368,12:09:59.368,10,false,0.590242,-0.317261,0.588989,0.451721,0.982437,-0.161624,-0.1084,-26.359155,-61.598035,23.666481
1784747399.3992,12:09:59.399,11,false,0.58979,-0.318726,0.588135,0.452393,0.981949,-0.14258,-0.104494,-26.310254,-61.629122,23.587771
1784747399.4303,12:09:59.430,12,false,0.589283,-0.319946,0.587463,0.453064,1.000015,-0.14844,-0.099611,-26.341012,-61.627192,23.367393
1784747399.4615,12:09:59.461,13,false,0.588712,-0.321228,0.586487,0.454163,0.985855,-0.14844,-0.115236,-26.159341,-61.460964,23.154099
1784747399.4926,12:09:59.492,14,false,0.587906,-0.322937,0.584839,0.456116,1.002945,-0.140627,-0.106447,-26.175283,-61.430988,23.081766
1784747399.5237,12:09:59.523,15,false,0.58721,-0.324036,0.584167,0.457092,1.005386,-0.147463,-0.11133,-26.07,-61.299334,22.911988
1784747399.5549,12:09:59.554,16,false,0.586557,-0.324829,0.583618,0.458069,0.969741,-0.15967,-0.113771,-26.035061,-61.345337,22.848912
1784747399.586,12:09:59.586,17,false,0.586489,-0.325256,0.582825,0.458862,0.990738,-0.142092,-0.107424,-26.003615,-61.237201,22.762235
1784747399.6174,12:09:59.617,18,false,0.586793,-0.325317,0.582581,0.45874,0.99855,-0.12549,-0.119631,-26.03513,-61.199695,22.77395
1784747399.6487,12:09:59.648,19,false,0.586967,-0.325745,0.582214,0.458679,0.995132,-0.141115,-0.116701,-26.003678,-61.180893,22.799446
1784747399.68,12:09:59.680,20,false,0.587136,-0.325745,0.582092,0.458618,0.98732,-0.144533,-0.121584,-25.885648,-61.149017,22.807439
1784747399.7114,12:09:59.711,21,false,0.587782,-0.325256,0.581665,0.458679,0.996109,-0.158206,-0.129885,-25.824282,-61.16519,22.859495
1784747399.7427,12:09:59.742,22,false,0.588399,-0.324646,0.581238,0.458862,0.98732,-0.157229,-0.129885,-25.87373,-61.090023,22.741852
1784747399.7739,12:09:59.773,23,false,0.589609,-0.32312,0.581055,0.458618,0.999039,-0.155276,-0.133303,-25.858418,-61.007419,22.695789
1784747399.805,12:09:59.805,24,false,0.59086,-0.321533,0.581482,0.457581,1.000504,-0.146487,-0.139162,-25.904452,-60.948029,22.56461
1784747399.8361,12:09:59.836,25,false,0.591255,-0.321106,0.581604,0.457214,0.977066,-0.151369,-0.127443,-25.901021,-61.044116,22.521317
1784747399.8673,12:09:59.867,26,false,0.592437,-0.319824,0.58197,0.456116,0.989273,-0.144045,-0.127932,-25.613811,-60.996011,22.4674
1784747399.8984,12:09:59.898,27,false,0.593215,-0.319092,0.582153,0.455383,0.984878,-0.146975,-0.127443,-25.639444,-60.937761,22.463736
1784747399.9296,12:09:59.929,28,false,0.594011,-0.318481,0.582153,0.454773,0.99855,-0.147951,-0.123537,-25.737284,-60.810568,22.460439
1784747399.9609,12:09:59.960,29,false,0.594307,-0.318054,0.582275,0.454529,0.990738,-0.14551,-0.127443,-25.660847,-60.755909,22.472425
1784747399.9922,12:09:59.992,30,false,0.594447,-0.317505,0.582336,0.454651,0.98732,-0.157229,-0.133791,-25.651869,-60.871209,22.363582
1784747400.0236,12:10:00.023,31,false,0.594706,-0.316284,0.582642,0.454773,0.995621,-0.168948,-0.134768,-25.643789,-61.01984,22.3703
1784747400.0549,12:10:00.054,0,false,0.59467,-0.315613,0.582947,0.454895,1.007828,-0.164553,-0.126955,-25.606609,-61.048931,22.256716
1784747400.0862,12:10:00.086,1,false,0.594568,-0.315063,0.583252,0.455017,0.992203,-0.179202,-0.138186,-25.677824,-61.10502,22.094674
1784747400.1176,12:10:00.117,2,false,0.59452,-0.314514,0.58374,0.454834,0.984878,-0.155764,-0.120119,-25.741918,-61.03587,22.053514
1784747400.1489,12:10:00.148,3,false,0.594591,-0.314331,0.583862,0.454712,0.982437,-0.161135,-0.124025,-25.799602,-61.048404,22.016469
1784747400.1803,12:10:00.180,4,false,0.594795,-0.314209,0.583862,0.454529,0.984878,-0.166506,-0.112306,-25.791703,-61.074639,22.117714
1784747400.2114,12:10:00.211,5,false,0.594912,-0.314026,0.583984,0.454346,0.989273,-0.162112,-0.116213,-25.76964,-60.933758,22.07425
1784747400.2425,12:10:00.242,6,false,0.594865,-0.314026,0.583984,0.454407,0.994156,-0.164553,-0.113771,-25.824552,-61.031272,22.005224
1784747400.2737,12:10:00.273,7,false,0.595205,-0.31366,0.584167,0.453979,0.997086,-0.149416,-0.12549,-25.963696,-60.954543,22.062732
1784747400.3048,12:10:00.304,8,false,0.595396,-0.313232,0.584534,0.453552,0.998062,-0.154788,-0.123537,-25.864618,-60.960256,22.189258
1784747400.336,12:10:00.336,9,false,0.595373,-0.31311,0.584717,0.45343,0.985367,-0.154788,-0.117189,-25.760494,-61.055121,22.213408
1784747400.3673,12:10:00.367,10,false,0.595614,-0.312866,0.584839,0.453125,0.98439,-0.159182,-0.117678,-25.636874,-61.200315,22.145421
1784747400.3986,12:10:00.398,11,false,0.595725,-0.312805,0.5849,0.452942,0.987808,-0.154788,-0.115724,-25.660201,-61.271174,22.173955
1784747400.43,12:10:00.430,12,false,0.595824,-0.31311,0.584778,0.452759,0.981949,-0.155276,-0.109865,-25.666242,-61.319993,22.080005
1784747400.4613,12:10:00.461,13,false,0.596057,-0.313171,0.584839,0.452332,0.986343,-0.144533,-0.12256,-25.611863,-61.229345,22.010404
1784747400.4927,12:10:00.492,14,false,0.596428,-0.313293,0.584961,0.451599,0.993668,-0.150393,-0.12549,-25.652645,-61.05804,21.932809
1784747400.524,12:10:00.524,15,false,0.596535,-0.313416,0.585022,0.451294,0.990738,-0.145022,-0.118166,-25.719257,-61.068357,21.952696
1784747400.5553,12:10:00.555,16,false,0.596599,-0.313354,0.585083,0.451172,0.98732,-0.156252,-0.120119,-25.86893,-61.167365,21.91078
1784747400.5865,12:10:00.586,17,false,0.596645,-0.313354,0.585083,0.451111,1.002945,-0.149905,-0.12256,-25.794283,-61.136842,22.112317
1784747400.6176,12:10:00.617,18,false,0.596903,-0.313049,0.585266,0.450745,0.984878,-0.144533,-0.114748,-25.7271,-61.184141,22.189023
1784747400.6488,12:10:00.648,19,false,0.596838,-0.312866,0.585571,0.450562,0.999039,-0.145022,-0.118166,-25.72645,-61.122033,22.198243
1784747400.6799,12:10:00.679,20,false,0.596845,-0.312378,0.58606,0.450256,0.992203,-0.155764,-0.108888,-25.74082,-61.20072,22.296264
1784747400.711,12:10:00.711,21,false,0.596811,-0.312134,0.586365,0.450073,0.98732,-0.147951,-0.120119,-25.738799,-61.077138,22.145221
1784747400.7424,12:10:00.742,22,false,0.596797,-0.312134,0.586426,0.450012,0.989761,-0.163577,-0.116213,-25.66221,-61.070592,22.293406
1784747400.7737,12:10:00.773,23,false,0.596585,-0.312134,0.586548,0.450134,0.985855,-0.164553,-0.109377,-25.757773,-61.154423,22.352003
1784747400.8051,12:10:00.805,24,false,0.59673,-0.31189,0.58667,0.449951,0.990738,-0.164553,-0.116213,-25.76901,-61.199963,22.180433
1784747400.8364,12:10:00.836,25,false,0.596638,-0.31189,0.58667,0.450073,0.982437,-0.163577,-0.12256,-25.779124,-61.196088,22.205466
1784747400.8677,12:10:00.867,26,false,0.59662,-0.311951,0.586609,0.450134,0.986831,-0.161135,-0.12256,-25.773272,-61.207554,22.138273
1784747400.8989,12:10:00.898,27,false,0.596918,-0.311768,0.586731,0.449707,0.985855,-0.156741,-0.114748,-25.827821,-61.247781,22.212383
1784747400.93,12:10:00.930,28,false,0.59701,-0.311829,0.586792,0.449463,0.996597,-0.144045,-0.124514,-25.951684,-61.164355,22.204313
1784747400.9612,12:10:00.961,29,false,0.597265,-0.311584,0.587036,0.448975,0.982437,-0.155276,-0.113283,-25.913623,-61.208902,22.27182
1784747400.9923,12:10:00.992,30,false,0.597395,-0.311462,0.587341,0.448486,0.991714,-0.150881,-0.112306,-26.028906,-61.278903,22.287714
1784747401.0234,12:10:01.023,31,false,0.597303,-0.311646,0.587524,0.448242,0.992691,-0.137209,-0.110353,-26.102753,-61.326949,22.182388
1784747401.0546,12:10:01.054,0,false,0.597225,-0.311768,0.587585,0.448181,0.989273,-0.142092,-0.121096,-25.989769,-61.400098,22.192272
1784747401.0857,12:10:01.085,1,false,0.597109,-0.311646,0.587769,0.448181,0.994156,-0.139651,-0.116701,-25.977807,-61.450979,22.216121
1784747401.1171,12:10:01.117,2,false,0.597271,-0.31134,0.587952,0.447937,0.979019,-0.166018,-0.118654,-26.101625,-61.332279,22.357216
1784747401.1484,12:10:01.148,3,false,0.596964,-0.310974,0.588318,0.44812,1.002945,-0.160647,-0.120119,-26.138293,-61.300218,22.274847
1784747401.1797,12:10:01.179,4,false,0.596997,-0.310364,0.588745,0.447937,0.986831,-0.163577,-0.114748,-26.171293,-61.226502,22.350254
1784747401.2111,12:10:01.211,5,false,0.597047,-0.309753,0.589294,0.447571,1.000504,-0.163577,-0.119631,-26.081363,-61.160158,22.373259
1784747401.2424,12:10:01.242,6,false,0.597087,-0.309448,0.5896,0.447327,0.980972,-0.166506,-0.123537,-25.970518,-61.220079,22.259378
1784747401.2737,12:10:01.273,7,false,0.596918,-0.309509,0.5896,0.44751,0.98439,-0.166506,-0.118654,-25.975435,-61.274007,22.261563
1784747401.3049,12:10:01.304,8,false,0.596758,-0.309265,0.589844,0.447571,1.000504,-0.155764,-0.105959,-25.875183,-61.322543,22.263529
1784747401.336,12:10:01.336,9,false,0.596843,-0.30896,0.590149,0.447266,0.998062,-0.157717,-0.114748,-25.919541,-61.276502,22.384929
1784747401.3672,12:10:01.367,10,false,0.596762,-0.308533,0.590454,0.447266,0.988785,-0.162112,-0.115724,-25.914601,-61.339742,22.434374
1784747401.3985,12:10:01.398,11,false,0.596679,-0.308167,0.590637,0.447388,0.986343,-0.16846,-0.100099,-25.910156,-61.44152,22.359244
1784747401.4296,12:10:01.429,12,false,0.596653,-0.307861,0.590637,0.447632,0.997086,-0.173342,-0.122072,-25.77157,-61.473305,22.321534
1784747401.4608,12:10:01.460,13,false,0.596873,-0.307434,0.590637,0.447632,0.974624,-0.164065,-0.108888,-25.871151,-61.457049,22.287595
1784747401.4921,12:10:01.492,14,false,0.597226,-0.30719,0.590454,0.447571,0.996109,-0.164065,-0.104494,-25.915912,-61.547096,22.272004
1784747401.5235,12:10:01.523,15,false,0.597563,-0.306946,0.590332,0.447449,1.004898,-0.153811,-0.122072,-25.836566,-61.553369,22.332742
1784747401.5548,12:10:01.554,16,false,0.598117,-0.306458,0.59021,0.447205,0.992203,-0.16553,-0.119142,-25.899739,-61.573969,22.402359
1784747401.5861,12:10:01.586,17,false,0.598271,-0.306213,0.590088,0.447327,1.000015,-0.164065,-0.129885,-25.941641,-61.652324,22.405199
1784747401.6175,12:10:01.617,18,false,0.598558,-0.306213,0.589844,0.447266,0.984878,-0.151369,-0.121096,-25.949446,-61.588259,22.467571
1784747401.6486,12:10:01.648,19,false,0.598726,-0.306152,0.589844,0.447083,0.981949,-0.1626,-0.123049,-25.911608,-61.515646,22.613429
1784747401.6798,12:10:01.679,20,false,0.599076,-0.305969,0.589722,0.446899,0.984878,-0.157229,-0.110842,-25.952323,-61.599834,22.669931
1784747401.7109,12:10:01.710,21,false,0.599014,-0.30603,0.589661,0.447021,0.995132,-0.153811,-0.109865,-25.869336,-61.630741,22.616107
1784747401.742,12:10:01.742,22,false,0.59925,-0.305542,0.589905,0.446716,0.980972,-0.172854,-0.118654,-25.944187,-61.703418,22.597572
1784747401.7732,12:10:01.773,23,false,0.599234,-0.305664,0.589905,0.446655,0.987808,-0.152346,-0.11426,-26.071367,-61.709013,22.565937
1784747401.8043,12:10:01.804,24,false,0.599246,-0.305847,0.589844,0.446594,0.996109,-0.153323,-0.119631,-26.021337,-61.654233,22.55242
1784747401.8355,12:10:01.835,25,false,0.599227,-0.306091,0.589783,0.446533,0.993668,-0.148928,-0.115724,-26.006218,-61.649792,22.540254
1784747401.8668,12:10:01.866,26,false,0.599006,-0.306519,0.5896,0.446777,0.999527,-0.155276,-0.112306,-25.992611,-61.750473,22.454536
1784747401.8981,12:10:01.898,27,false,0.599033,-0.306702,0.589478,0.446777,0.98439,-0.162112,-0.113283,-26.114949,-61.601824,22.511974
1784747401.9295,12:10:01.929,28,false,0.598985,-0.306824,0.589417,0.446838,0.996109,-0.160647,-0.112306,-26.150284,-61.497947,22.488899
1784747401.9608,12:10:01.960,29,false,0.59903,-0.306824,0.589417,0.446777,0.995621,-0.157229,-0.113283,-25.987686,-61.479227,22.498039
1784747401.9922,12:10:01.992,30,false,0.599258,-0.306824,0.589417,0.446472,0.993179,-0.156741,-0.118166,-25.990885,-61.46238,22.506265
1784747402.0233,12:10:02.023,31,false,0.599238,-0.307068,0.589355,0.446411,0.983902,-0.152834,-0.11133,-25.993765,-61.521986,22.453853
1784747402.0546,12:10:02.054,0,false,0.599248,-0.307312,0.589172,0.446472,0.994156,-0.15967,-0.10547,-25.951496,-61.485908,22.526313
1784747402.086,12:10:02.086,1,false,0.599458,-0.307373,0.589111,0.446228,0.983413,-0.154788,-0.113771,-26.01813,-61.632885,22.591527
1784747402.1171,12:10:02.117,2,false,0.599623,-0.307434,0.58905,0.446045,0.983413,-0.169436,-0.108888,-25.928562,-61.481041,22.470774
1784747402.1483,12:10:02.148,3,false,0.599907,-0.307556,0.588928,0.44574,0.988296,-0.157717,-0.108888,-25.922721,-61.598596,22.511634
1784747402.1794,12:10:02.179,4,false,0.600087,-0.307617,0.588806,0.445618,0.98732,-0.150393,-0.120607,-25.842694,-61.674488,22.548409
1784747402.2107,12:10:02.210,5,false,0.600643,-0.307617,0.588562,0.44519,0.985367,-0.152346,-0.112306,-25.905254,-61.712884,22.446921
1784747402.2421,12:10:02.242,6,false,0.600816,-0.307922,0.588318,0.445068,1.002945,-0.144533,-0.124025,-25.871836,-61.627809,22.370536
1784747402.2734,12:10:02.273,7,false,0.600895,-0.308411,0.588074,0.444946,0.992203,-0.155276,-0.124025,-25.76699,-61.581149,22.451328
1784747402.3048,12:10:02.304,8,false,0.60094,-0.308411,0.588074,0.444885,0.988296,-0.144533,-0.121096,-25.792259,-61.554109,22.509087
1784747402.3361,12:10:02.336,9,false,0.60083,-0.308594,0.587952,0.445068,1.000015,-0.151858,-0.109865,-25.859863,-61.649404,22.516208
1784747402.3674,12:10:02.367,10,false,0.600533,-0.309021,0.587708,0.445496,0.991226,-0.154299,-0.117189,-25.771169,-61.690308,22.41794
1784747402.3986,12:10:02.398,11,false,0.600406,-0.309326,0.587769,0.445374,0.995132,-0.139162,-0.113283,-25.676389,-61.712167,22.344453
1784747402.4297,12:10:02.429,12,false,0.600496,-0.309387,0.58783,0.445129,0.989761,-0.140627,-0.119631,-25.63595,-61.821564,22.472715
1784747402.4609,12:10:02.460,13,false,0.600398,-0.309753,0.58783,0.445007,1.000015,-0.146975,-0.118654,-25.644415,-61.770483,22.528335
1784747402.492,12:10:02.492,14,false,0.600446,-0.309692,0.587952,0.444824,0.990738,-0.152346,-0.128908,-25.652035,-61.769371,22.608301
1784747402.5233,12:10:02.523,15,false,0.600446,-0.309692,0.587952,0.444824,0.990249,-0.155764,-0.12256,-25.673846,-61.783324,22.695224
1784747402.5545,12:10:02.554,16,false,0.600442,-0.309875,0.587952,0.444702,0.994644,-0.142092,-0.118654,-25.738337,-61.691205,22.594008
1784747402.5856,12:10:02.585,17,false,0.600164,-0.310181,0.588074,0.444702,0.99855,-0.145998,-0.119631,-25.79638,-61.638206,22.727222
1784747402.617,12:10:02.617,18,false,0.600382,-0.309937,0.588257,0.444336,0.986831,-0.14551,-0.106935,-25.743941,-61.530691,22.787299
1784747402.6483,12:10:02.648,19,false,0.600351,-0.309998,0.588257,0.444336,0.98732,-0.15967,-0.10547,-25.876192,-61.613374,22.856322
1784747402.6796,12:10:02.679,20,false,0.600546,-0.309998,0.588196,0.444153,0.996597,-0.141604,-0.111818,-25.860634,-61.583111,22.798813
1784747402.711,12:10:02.711,21,false,0.600466,-0.310181,0.588135,0.444214,1.000015,-0.145998,-0.115724,-25.697093,-61.555875,22.776961
1784747402.7423,12:10:02.742,22,false,0.600567,-0.310364,0.588074,0.444031,0.996109,-0.138674,-0.107912,-25.564859,-61.486501,22.89188
1784747402.7736,12:10:02.773,23,false,0.600781,-0.310242,0.588196,0.443665,0.991226,-0.142092,-0.107912,-25.610342,-61.364249,23.040168
1784747402.8048,12:10:02.804,24,false,0.600624,-0.310486,0.588135,0.443787,0.990249,-0.144533,-0.109865,-25.696138,-61.403761,22.994181
1784747402.8359,12:10:02.835,25,false,0.600499,-0.310669,0.588074,0.443909,0.995132,-0.151369,-0.117678,-25.638769,-61.424367,22.937839
1784747402.8671,12:10:02.867,26,false,0.600513,-0.31073,0.588074,0.443848,1.000015,-0.145022,-0.115236,-25.706768,-61.368144,23.096485
1784747402.8982,12:10:02.898,27,false,0.600537,-0.310913,0.587952,0.443848,0.980972,-0.135744,-0.112795,-25.693198,-61.496989,23.029913
1784747402.9293,12:10:02.929,28,false,0.600457,-0.311096,0.587891,0.443909,0.993179,-0.137697,-0.112306,-25.606216,-61.433504,23.044767
1784747402.9605,12:10:02.960,29,false,0.600345,-0.31134,0.58783,0.44397,0.992203,-0.141115,-0.11426,-25.677471,-61.451136,22.983367
1784747402.9918,12:10:02.991,30,false,0.600069,-0.311584,0.587891,0.444092,0.987808,-0.153323,-0.110842,-25.696738,-61.317467,23.032783
1784747403.0232,12:10:03.023,31,false,0.599964,-0.311584,0.587952,0.444153,0.988296,-0.16846,-0.112795,-25.803802,-61.107441,23.032396
1784747403.0545,12:10:03.054,0,false,0.599744,-0.31189,0.58783,0.444397,0.993668,-0.149416,-0.117678,-25.82539,-61.202541,22.957279
1784747403.0858,12:10:03.085,1,false,0.599727,-0.311951,0.587769,0.444458,0.98732,-0.147463,-0.127443,-25.874727,-61.24327,22.949489
1784747403.1172,12:10:03.117,2,false,0.599817,-0.311951,0.587769,0.444336,0.996109,-0.146975,-0.121096,-25.874269,-61.309833,23.077062
1784747403.1485,12:10:03.148,3,false,0.599723,-0.312073,0.587708,0.444458,0.992203,-0.142092,-0.116701,-25.933672,-61.280017,23.072248
1784747403.1797,12:10:03.179,4,false,0.599795,-0.312195,0.587708,0.444275,0.997086,-0.149416,-0.109377,-26.121719,-61.193368,23.187545
1784747403.2108,12:10:03.210,5,false,0.599983,-0.311951,0.58783,0.444031,0.985367,-0.151858,-0.103517,-26.081608,-61.249967,23.231498
1784747403.2419,12:10:03.241,6,false,0.599857,-0.312134,0.587769,0.444153,0.995132,-0.141115,-0.11133,-26.060462,-61.241092,23.256101
1784747403.2733,12:10:03.273,7,false,0.599812,-0.312134,0.587769,0.444214,0.985367,-0.148928,-0.112306,-26.04143,-61.203196,23.248336
1784747403.3044,12:10:03.304,8,false,0.599613,-0.312256,0.587769,0.444397,0.994644,-0.14844,-0.118654,-25.964487,-61.213951,23.331071
1784747403.3356,12:10:03.335,9,false,0.599673,-0.312256,0.587708,0.444397,0.985367,-0.145998,-0.117678,-26.014868,-61.223631,23.360671
1784747403.3667,12:10:03.366,10,false,0.599763,-0.312256,0.587708,0.444275,0.993179,-0.141115,-0.121584,-26.120026,-61.217389,23.312542
1784747403.398,12:10:03.398,11,false,0.599637,-0.312439,0.587646,0.444397,0.989761,-0.14258,-0.104005,-26.1399,-61.181864,23.329041
1784747403.4294,12:10:03.429,12,false,0.599742,-0.312439,0.587585,0.444336,1.010269,-0.144045,-0.112306,-26.247509,-61.239614,23.328936
1784747403.4607,12:10:03.460,13,false,0.599725,-0.3125,0.587524,0.444397,0.991226,-0.134279,-0.11426,-26.404173,-61.306543,23.209211
1784747403.4921,12:10:03.492,14,false,0.599829,-0.312561,0.587524,0.444214,0.991714,-0.142092,-0.108888,-26.425539,-61.29201,23.206135
1784747403.5234,12:10:03.523,15,false,0.599829,-0.312561,0.587524,0.444214,0.98439,-0.145022,-0.11133,-26.459723,-61.338745,23.218321
1784747403.5547,12:10:03.554,16,false,0.599863,-0.312439,0.587646,0.444092,0.974136,-0.14844,-0.117678,-26.610119,-61.380807,23.259196
1784747403.586,12:10:03.586,17,false,0.600142,-0.312195,0.587769,0.443726,1.009293,-0.142092,-0.120607,-26.655752,-61.254171,23.071675
1784747403.6171,12:10:03.617,18,false,0.600076,-0.312378,0.587646,0.443848,0.999527,-0.148928,-0.110353,-26.592145,-61.30469,22.99263
1784747403.6485,12:10:03.648,19,false,0.599882,-0.312805,0.587524,0.44397,0.977066,-0.14844,-0.104494,-26.46013,-61.350158,23.026167
1784747403.6798,12:10:03.679,20,false,0.599906,-0.312988,0.587402,0.44397,0.992203,-0.141604,-0.1084,-26.371224,-61.226586,23.071303
1784747403.7109,12:10:03.710,21,false,0.599892,-0.313416,0.587097,0.444092,0.989761,-0.151369,-0.117189,-26.231393,-61.205095,23.096972
1784747403.7423,12:10:03.742,22,false,0.59987,-0.313599,0.586975,0.444153,0.994156,-0.140627,-0.109377,-26.270038,-61.320337,23.10512
1784747403.7736,12:10:03.773,23,false,0.599943,-0.31366,0.586914,0.444092,0.993668,-0.158206,-0.116701,-26.27491,-61.349286,23.217131
1784747403.805,12:10:03.805,24,false,0.599668,-0.314148,0.586426,0.444763,0.992203,-0.152834,-0.124025,-26.204526,-61.225802,23.288032
1784747403.8363,12:10:03.836,25,false,0.599616,-0.31427,0.586182,0.445068,0.994644,-0.144045,-0.113283,-26.186042,-61.204389,23.217259
1784747403.8676,12:10:03.867,26,false,0.599568,-0.314331,0.58606,0.445251,0.990249,-0.143557,-0.126467,-26.094637,-61.259887,23.25824
1784747403.899,12:10:03.899,27,false,0.599223,-0.315125,0.585754,0.445557,0.999527,-0.135256,-0.12256,-26.132003,-61.190204,23.011
1784747403.9303,12:10:03.930,28,false,0.598998,-0.315918,0.58551,0.445618,0.990249,-0.138674,-0.109377,-26.120771,-61.277028,22.938022
1784747403.9615,12:10:03.961,29,false,0.59899,-0.316895,0.585083,0.445496,0.991714,-0.136721,-0.123537,-26.080755,-61.250492,23.051789
1784747403.9928,12:10:03.992,30,false,0.599026,-0.317139,0.584961,0.445435,1.003922,-0.133303,-0.124025,-26.224186,-61.256518,22.825194
1784747404.0239,12:10:04.023,31,false,0.599292,-0.317932,0.584351,0.445313,1.000015,-0.138674,-0.118654,-26.33832,-61.366618,22.830612
1784747404.0551,12:10:04.055,0,false,0.599135,-0.318359,0.584045,0.445618,1.00441,-0.146975,-0.109377,-26.216734,-61.346077,22.790627
1784747404.0862,12:10:04.086,1,false,0.599366,-0.318176,0.583862,0.445679,0.991714,-0.155276,-0.110842,-26.226936,-61.148145,22.82941
1784747404.1174,12:10:04.117,2,false,0.599439,-0.318848,0.583374,0.44574,1.011246,-0.147463,-0.104494,-26.131442,-61.209267,22.804499
1784747404.1487,12:10:04.148,3,false,0.599426,-0.319397,0.582947,0.445923,0.978531,-0.131838,-0.102541,-25.94082,-61.339046,22.677402
1784747404.18,12:10:04.180,4,false,0.600281,-0.32074,0.581421,0.445801,1.000015,-0.137209,-0.119142,-25.978614,-61.216586,22.6976
1784747404.2114,12:10:04.211,5,false,0.601209,-0.321533,0.580444,0.445251,1.001968,-0.133791,-0.119631,-25.952814,-61.226002,22.68587
1784747404.2427,12:10:04.242,6,false,0.602746,-0.323181,0.579102,0.443726,0.989761,-0.124514,-0.126467,-25.854824,-61.055031,22.540728
1784747404.2738,12:10:04.273,7,false,0.604013,-0.32373,0.578735,0.442078,0.989761,-0.105959,-0.124025,-25.931125,-60.841341,22.574593
1784747404.305,12:10:04.305,8,false,0.605435,-0.32373,0.578552,0.440369,0.988296,-0.106935,-0.125002,-25.89512,-60.768651,22.634979
1784747404.3361,12:10:04.336,9,false,0.606883,-0.324219,0.57843,0.438171,0.994156,-0.110353,-0.120607,-25.982345,-60.718184,22.629511
1784747404.3673,12:10:04.367,10,false,0.607688,-0.324768,0.57843,0.436646,0.997086,-0.105959,-0.112306,-26.045894,-60.612949,22.579729
1784747404.3984,12:10:04.398,11,false,0.608324,-0.325623,0.578247,0.435364,0.991714,-0.091798,-0.1084,-26.043273,-60.503283,22.624648
1784747404.4295,12:10:04.429,12,false,0.609384,-0.327515,0.577393,0.433594,0.991714,-0.097169,-0.115236,-26.10073,-60.344768,22.650121
1784747404.4607,12:10:04.460,13,false,0.610546,-0.328735,0.57666,0.432007,0.991226,-0.098146,-0.106935,-26.077671,-60.246966,22.702954
1784747404.4918,12:10:04.491,14,false,0.612632,-0.330322,0.575317,0.429626,1.000992,-0.077638,-0.123537,-26.146642,-60.248668,22.765458
1784747404.5232,12:10:04.523,15,false,0.61326,-0.330933,0.574707,0.429077,1.009781,-0.074708,-0.138674,-26.178808,-60.280107,22.642265
1784747404.5545,12:10:04.554,16,false,0.615294,-0.331482,0.573853,0.42688,0.989273,-0.066407,-0.136233,-26.237665,-60.173817,22.68093
1784747404.5858,12:10:04.585,17,false,0.616373,-0.332153,0.573303,0.425537,0.998062,-0.061524,-0.13135,-26.200913,-60.093111,22.76059
1784747404.6172,12:10:04.617,18,false,0.617667,-0.333801,0.572083,0.424011,0.989273,-0.047364,-0.138674,-26.317374,-60.020475,22.832284
1784747404.6483,12:10:04.648,19,false,0.618282,-0.3349,0.571228,0.423401,0.985367,-0.062989,-0.131838,-26.272651,-59.955102,22.792132
1784747404.6797,12:10:04.679,20,false,0.618555,-0.336365,0.570251,0.423157,0.985855,-0.05127,-0.141604,-26.441755,-59.881313,22.741041
1784747404.7108,12:10:04.710,21,false,0.619037,-0.337952,0.56897,0.422913,0.982437,-0.056641,-0.136721,-26.459363,-59.680318,22.710013
1784747404.7419,12:10:04.741,22,false,0.619305,-0.33905,0.568115,0.422791,0.999527,-0.052247,-0.149416,-26.490164,-59.663916,22.667134
1784747404.7731,12:10:04.773,23,false,0.619893,-0.339783,0.567444,0.422241,0.992691,-0.055177,-0.150881,-26.65247,-59.484661,22.643497
1784747404.8042,12:10:04.804,24,false,0.620681,-0.34021,0.567505,0.420654,1.026871,-0.041993,-0.133791,-26.619099,-59.218654,22.622224
1784747404.8354,12:10:04.835,25,false,0.620532,-0.340637,0.568359,0.419373,1.023453,-0.04004,-0.125978,-26.514296,-59.188602,22.677847
1784747404.8665,12:10:04.866,26,false,0.619201,-0.341248,0.570251,0.418274,0.992203,-0.028809,-0.107912,-26.509696,-59.116694,22.638184
1784747404.8978,12:10:04.897,27,false,0.618015,-0.341309,0.571411,0.418396,0.979995,-0.03125,-0.094728,-26.685003,-58.872531,22.707165
1784747404.9292,12:10:04.929,28,false,0.616919,-0.34137,0.572021,0.419128,0.983413,-0.064942,-0.08838,-26.738102,-58.862137,22.73934
1784747404.9605,12:10:04.960,29,false,0.616181,-0.340759,0.57251,0.420044,0.98146,-0.07422,-0.099123,-26.785891,-58.673337,22.872975
1784747404.9919,12:10:04.991,30,false,0.616098,-0.340149,0.572693,0.42041,0.998062,-0.075685,-0.112306,-26.888716,-58.742679,22.93343
1784747405.0232,12:10:05.023,31,false,0.616094,-0.339539,0.573059,0.42041,0.999527,-0.076661,-0.113771,-26.996213,-58.790132,22.972887
1784747405.0543,12:10:05.054,0,false,0.61612,-0.339417,0.573059,0.420471,1.001968,-0.073732,-0.113283,-26.973329,-58.758071,22.90372
1784747405.0855,12:10:05.085,1,false,0.616075,-0.338562,0.57312,0.421143,1.001968,-0.062501,-0.109377,-27.012549,-58.774077,23.005963
1784747405.1166,12:10:05.116,2,false,0.616056,-0.33783,0.573303,0.421509,1.00441,-0.079591,-0.106447,-27.01794,-58.683806,23.05312
1784747405.1478,12:10:05.147,3,false,0.615484,-0.336975,0.573792,0.422363,0.999039,-0.09131,-0.115236,-26.992883,-58.617516,23.050699
1784747405.1789,12:10:05.178,4,false,0.615011,-0.336548,0.57428,0.422729,1.00734,-0.087404,-0.118166,-27.19464,-58.707393,23.183106
1784747405.21,12:10:05.210,5,false,0.614389,-0.336182,0.57489,0.423096,1.005386,-0.091798,-0.114748,-27.346314,-58.758375,23.197594
1784747405.2412,12:10:05.241,6,false,0.613075,-0.336487,0.575439,0.424011,1.000992,-0.103029,-0.100587,-27.258512,-58.684628,23.135865
1784747405.2725,12:10:05.272,7,false,0.612217,-0.336548,0.575867,0.424622,0.993179,-0.084962,-0.101076,-27.403799,-58.663117,23.184985
1784747405.3039,12:10:05.303,8,false,0.611699,-0.336609,0.576111,0.424988,0.992203,-0.093263,-0.096681,-27.474741,-58.688619,23.034794
1784747405.3352,12:10:05.335,9,false,0.610977,-0.336731,0.576355,0.425598,0.993668,-0.098634,-0.099611,-27.389051,-58.606894,23.123929
1784747405.3665,12:10:05.366,10,false,0.610855,-0.336304,0.576599,0.425781,0.989273,-0.101564,-0.104005,-27.521283,-58.667926,23.174243
1784747405.3979,12:10:05.397,11,false,0.611265,-0.335022,0.577271,0.425293,0.999527,-0.090333,-0.107912,-27.550569,-58.692947,23.309249
1784747405.429,12:10:05.429,12,false,0.611329,-0.334717,0.577515,0.42511,1.006851,-0.091798,-0.106447,-27.502158,-58.580881,23.191492
1784747405.4602,12:10:05.460,13,false,0.611076,-0.334167,0.578369,0.424744,1.005386,-0.100099,-0.101076,-27.458587,-58.614606,23.160281
1784747405.4913,12:10:05.491,14,false,0.610786,-0.333923,0.579041,0.424438,1.009781,-0.079591,-0.1084,-27.494143,-58.719728,23.236868
1784747405.5224,12:10:05.522,15,false,0.610256,-0.333923,0.579956,0.42395,1.000015,-0.085939,-0.095705,-27.63082,-58.604985,23.201119
1784747405.5536,12:10:05.553,16,false,0.609783,-0.334229,0.580322,0.423889,0.992203,-0.085451,-0.095705,-27.574383,-58.711069,23.198852
1784747405.5847,12:10:05.584,17,false,0.609443,-0.334473,0.580627,0.423767,0.995621,-0.067872,-0.083009,-27.553498,-58.597191,23.196812
1784747405.616,12:10:05.616,18,false,0.609206,-0.33429,0.581116,0.423584,0.997574,-0.07129,-0.086427,-27.594517,-58.614332,23.239838
1784747405.6474,12:10:05.647,19,false,0.609202,-0.334045,0.581482,0.423279,1.005386,-0.073243,-0.093263,-27.661341,-58.554989,23.323423
1784747405.6787,12:10:05.678,20,false,0.60929,-0.333557,0.581848,0.423035,1.005386,-0.078126,-0.093751,-27.721483,-58.426811,23.24911
1784747405.7101,12:10:05.710,21,false,0.609395,-0.332764,0.582458,0.422668,1.000015,-0.082033,-0.093263,-27.745703,-58.505851,23.256999
1784747405.7414,12:10:05.741,22,false,0.609548,-0.332336,0.582764,0.422363,0.999039,-0.068849,-0.095216,-27.692732,-58.502218,23.413637
1784747405.7727,12:10:05.772,23,false,0.609739,-0.331604,0.583069,0.422241,0.996109,-0.082521,-0.104005,-27.674965,-58.498948,23.330303
1784747405.8041,12:10:05.804,24,false,0.609775,-0.331238,0.582886,0.422729,1.000504,-0.082033,-0.103517,-27.554299,-58.421236,23.330072
1784747405.8354,12:10:05.835,25,false,0.609897,-0.33075,0.582947,0.422852,1.00148,-0.090333,-0.101564,-27.505514,-58.545695,23.419587
1784747405.8666,12:10:05.866,26,false,0.609986,-0.330322,0.583008,0.422974,1.000992,-0.082521,-0.103029,-27.491516,-58.553032,23.425381
1784747405.8977,12:10:05.897,27,false,0.6099,-0.330383,0.582886,0.423218,1.000504,-0.093263,-0.098634,-27.344333,-58.649358,23.44555
1784747405.9288,12:10:05.928,28,false,0.610145,-0.330078,0.582581,0.423523,1.004898,-0.09131,-0.096681,-27.331499,-58.706143,23.463702
1784747405.96,12:10:05.960,29,false,0.610134,-0.330078,0.582458,0.423706,1.004898,-0.090822,-0.104005,-27.230225,-58.667527,23.40527
1784747405.9911,12:10:05.991,30,false,0.610032,-0.330139,0.582397,0.423889,0.995621,-0.086427,-0.11133,-27.213848,-58.692588,23.487265
1784747406.0225,12:10:06.022,31,false,0.610032,-0.330139,0.582397,0.423889,1.011246,-0.099123,-0.107424,-27.288831,-58.700189,23.546107
1784747406.0538,12:10:06.053,0,false,0.610031,-0.3302,0.582275,0.424011,1.000015,-0.083009,-0.106935,-27.266593,-58.692076,23.509342
1784747406.0851,12:10:06.085,1,false,0.609954,-0.330322,0.582153,0.424194,0.995132,-0.091798,-0.107912,-27.186764,-58.774497,23.491207
1784747406.1165,12:10:06.116,2,false,0.609844,-0.330505,0.582031,0.424377,1.00148,-0.082521,-0.108888,-27.129871,-58.788861,23.534701
1784747406.1478,12:10:06.147,3,false,0.609863,-0.330627,0.582031,0.424255,1.011246,-0.092287,-0.112795,-27.168391,-58.936373,23.484122
1784747406.179,12:10:06.179,4,false,0.609713,-0.330933,0.58197,0.424316,0.982437,-0.087404,-0.100099,-27.158197,-58.874734,23.453555
1784747406.2103,12:10:06.210,5,false,0.609771,-0.330933,0.581909,0.424316,0.995621,-0.089845,-0.101076,-27.193884,-58.908982,23.470907
1784747406.2414,12:10:06.241,6,false,0.609813,-0.331177,0.581726,0.424316,0.990249,-0.094728,-0.11426,-27.33068,-58.879989,23.441662
1784747406.2726,12:10:06.272,7,false,0.610057,-0.331177,0.581604,0.424133,0.997574,-0.079591,-0.109865,-27.528565,-58.883804,23.415341
1784747406.3037,12:10:06.303,8,false,0.610264,-0.33136,0.581238,0.424194,0.995621,-0.084474,-0.106447,-27.452446,-58.947052,23.331837
1784747406.3349,12:10:06.334,9,false,0.610346,-0.331482,0.580994,0.424316,0.997574,-0.082521,-0.107912,-27.50357,-59.078745,23.301545
1784747406.366,12:10:06.366,10,false,0.610411,-0.331604,0.580811,0.424377,1.000504,-0.079103,-0.117189,-27.699119,-59.1225,23.30419
1784747406.3973,12:10:06.397,11,false,0.610577,-0.331726,0.580566,0.424377,0.998062,-0.07422,-0.121584,-27.725576,-59.087109,23.30657
1784747406.4287,12:10:06.428,12,false,0.610794,-0.331482,0.580566,0.424255,1.001968,-0.087404,-0.107424,-27.749387,-58.950581,23.383481
1784747406.46,12:10:06.460,13,false,0.611021,-0.331299,0.580566,0.424072,1.006363,-0.088869,-0.112795,-27.696047,-58.932383,23.377932
1784747406.4914,12:10:06.491,14,false,0.61091,-0.331482,0.580444,0.424255,0.997574,-0.078126,-0.108888,-27.633088,-58.930958,23.178539
1784747406.5227,12:10:06.522,15,false,0.610705,-0.331848,0.580139,0.424683,1.00441,-0.082521,-0.117678,-27.666147,-58.884814,23.163576
1784747406.554,12:10:06.554,16,false,0.610679,-0.332031,0.580017,0.424744,0.99855,-0.077638,-0.118166,-27.57627,-58.992823,23.15011
1784747406.5854,12:10:06.585,17,false,0.610659,-0.332153,0.579834,0.424927,0.996109,-0.082521,-0.1084,-27.405658,-58.985354,23.123037
1784747406.6165,12:10:06.616,18,false,0.610659,-0.332153,0.579834,0.424927,0.988296,-0.087404,-0.110353,-27.46146,-59.00854,23.248209
1784747406.6477,12:10:06.647,19,false,0.610692,-0.332092,0.579834,0.424927,1.00148,-0.089357,-0.104982,-27.377098,-59.074269,23.271142
1784747406.6788,12:10:06.678,20,false,0.61064,-0.332031,0.579834,0.425049,1.000504,-0.088869,-0.115236,-27.390895,-59.013794,23.202057
1784747406.7099,12:10:06.709,21,false,0.610622,-0.332092,0.579773,0.42511,1.009781,-0.085451,-0.104494,-27.373405,-59.16872,23.244559
1784747406.7411,12:10:06.741,22,false,0.610493,-0.332336,0.57959,0.425354,1.010758,-0.083497,-0.117678,-27.282894,-59.17357,23.178133
1784747406.7724,12:10:06.772,23,false,0.610491,-0.332397,0.579468,0.425476,0.993179,-0.085451,-0.117189,-27.350973,-59.252703,23.193119
1784747406.8037,12:10:06.803,24,false,0.610509,-0.332336,0.579529,0.425415,0.988785,-0.086915,-0.115724,-27.352429,-59.264108,23.266422
1784747406.8351,12:10:06.835,25,false,0.610821,-0.332153,0.579529,0.42511,0.99855,-0.071778,-0.106935,-27.353739,-59.124834,23.287533
1784747406.8664,12:10:06.866,26,false,0.610946,-0.332214,0.579407,0.425049,1.00441,-0.081544,-0.109865,-27.444641,-59.268656,23.291579
1784747406.8978,12:10:06.897,27,false,0.611601,-0.332214,0.579163,0.424438,1.012711,-0.073732,-0.120119,-27.451684,-59.263512,23.265312
1784747406.9291,12:10:06.929,28,false,0.611869,-0.332458,0.578918,0.424194,1.013687,-0.085939,-0.120119,-27.502884,-59.064482,23.241673
1784747406.9604,12:10:06.960,29,false,0.612146,-0.332764,0.578674,0.423889,0.983902,-0.078614,-0.113771,-27.429333,-59.079755,23.220397
1784747406.9916,12:10:06.991,30,false,0.612497,-0.333008,0.57843,0.423523,0.999039,-0.062501,-0.115236,-27.407999,-59.018731,23.305926
1784747407.0227,12:10:07.022,31,false,0.612742,-0.333496,0.578247,0.423035,1.008316,-0.080079,-0.107912,-27.478521,-59.008672,23.397855
1784747407.0539,12:10:07.053,0,false,0.613658,-0.333435,0.578247,0.421753,1.004898,-0.072755,-0.105959,-27.30273,-59.059434,23.420777
1784747407.085,12:10:07.085,1,false,0.614265,-0.333069,0.578125,0.421326,0.999039,-0.069337,-0.111818,-27.219287,-59.03035,23.336729
1784747407.1161,12:10:07.116,2,false,0.615147,-0.332336,0.578186,0.420532,1.000992,-0.077638,-0.116213,-27.248865,-59.049036,23.305948
1784747407.1475,12:10:07.147,3,false,0.615878,-0.332092,0.578125,0.419739,1.005875,-0.084474,-0.099123,-27.350254,-58.946223,23.412829
1784747407.1788,12:10:07.178,4,false,0.616574,-0.331726,0.578125,0.419006,1.005386,-0.08838,-0.102052,-27.262059,-58.973322,23.404346
1784747407.2102,12:10:07.210,5,false,0.617602,-0.332397,0.577393,0.417969,0.990738,-0.071778,-0.116213,-27.332221,-58.952849,23.366803
1784747407.2415,12:10:07.241,6,false,0.61833,-0.332947,0.576782,0.417297,1.00734,-0.05713,-0.13135,-27.395368,-58.934424,23.362922
1784747407.2728,12:10:07.272,7,false,0.618909,-0.333374,0.576355,0.416687,1.010269,-0.061036,-0.116701,-27.227892,-58.887934,23.359429
1784747407.3042,12:10:07.304,8,false,0.619743,-0.333496,0.57605,0.415771,1.006363,-0.055665,-0.124514,-27.241655,-58.890954,23.416101
1784747407.3355,12:10:07.335,9,false,0.620354,-0.333618,0.575806,0.4151,0.998062,-0.047364,-0.117189,-27.313858,-58.774041,23.40729
1784747407.3667,12:10:07.366,10,false,0.621184,-0.333557,0.575562,0.414246,1.003922,-0.06006,-0.12256,-27.229302,-58.893128,23.504037
1784747407.3978,12:10:07.397,11,false,0.621378,-0.333557,0.575439,0.414124,1.00734,-0.055665,-0.115236,-27.227971,-58.880675,23.561202
1784747407.4289,12:10:07.428,12,false,0.621966,-0.333862,0.57489,0.413757,1.006851,-0.066896,-0.115236,-27.13705,-58.779744,23.702373
1784747407.4601,12:10:07.460,13,false,0.622591,-0.33374,0.574768,0.413086,1.00734,-0.056641,-0.116213,-27.234667,-58.688906,23.649981
1784747407.4912,12:10:07.491,14,false,0.623462,-0.333801,0.574402,0.412231,1.016129,-0.051759,-0.118654,-27.367384,-58.532383,23.572921
1784747407.5224,12:10:07.522,15,false,0.624034,-0.333679,0.574158,0.411804,1.011734,-0.047364,-0.12549,-27.352245,-58.34665,23.51852
1784747407.5537,12:10:07.553,16,false,0.62442,-0.333618,0.574036,0.411438,1.00148,-0.048341,-0.123537,-27.278804,-58.373891,23.514421
1784747407.585,12:10:07.585,17,false,0.624893,-0.333618,0.573608,0.411316,1.01857,-0.019532,-0.130861,-27.332338,-58.293731,23.331286
1784747407.6164,12:10:07.616,18,false,0.625253,-0.33374,0.573364,0.411011,1.00734,-0.030274,-0.129885,-27.201073,-58.266448,23.330957
1784747407.6477,12:10:07.647,19,false,0.6253,-0.333862,0.573242,0.411011,0.991226,-0.041505,-0.119142,-27.352103,-58.241894,23.584876
1784747407.6789,12:10:07.678,20,false,0.625176,-0.334106,0.573059,0.411255,1.00148,-0.051759,-0.121096,-27.3684,-58.369334,23.589095
1784747407.71,12:10:07.710,21,false,0.624979,-0.334473,0.572754,0.411682,0.997086,-0.044923,-0.12549,-27.502697,-58.528891,23.562985
1784747407.7411,12:10:07.741,22,false,0.625036,-0.334412,0.572815,0.41156,1.001968,-0.039063,-0.134768,-27.548796,-58.478092,23.569393
1784747407.7723,12:10:07.772,23,false,0.625059,-0.334595,0.572815,0.411377,0.993179,-0.049805,-0.129885,-27.530469,-58.462281,23.605069
1784747407.8034,12:10:07.803,24,false,0.624943,-0.3349,0.572632,0.41156,0.999527,-0.048341,-0.121584,-27.513975,-58.40319,23.562407
1784747407.8346,12:10:07.834,25,false,0.624606,-0.335449,0.572327,0.412048,0.98732,-0.051759,-0.118654,-27.499131,-58.394869,23.494104
1784747407.8657,12:10:07.865,26,false,0.624277,-0.335876,0.572083,0.412537,1.002457,-0.052247,-0.115236,-27.545586,-58.327565,23.447585
1784747407.8968,12:10:07.896,27,false,0.62426,-0.335938,0.572021,0.412598,1.000015,-0.049317,-0.118654,-27.572442,-58.356714,23.600118
1784747407.9282,12:10:07.928,28,false,0.62417,-0.33606,0.57196,0.41272,1.001968,-0.036133,-0.116701,-27.701289,-58.308179,23.528044
1784747407.9595,12:10:07.959,29,false,0.624125,-0.336304,0.571777,0.412842,0.997574,-0.046387,-0.12256,-27.637806,-58.339267,23.62767
1784747407.9909,12:10:07.990,30,false,0.623817,-0.336426,0.571777,0.413208,1.019059,-0.053223,-0.117189,-27.700301,-58.3822,23.567794
1784747408.0222,12:10:08.022,31,false,0.623426,-0.337097,0.571411,0.413757,1.000992,-0.047852,-0.116701,-27.681778,-58.42084,23.618583
1784747408.0533,12:10:08.053,0,false,0.623096,-0.337463,0.571289,0.414124,1.000504,-0.052735,-0.119631,-27.709968,-58.425708,23.619432
1784747408.0845,12:10:08.084,1,false,0.622898,-0.337708,0.571228,0.414307,0.991226,-0.057618,-0.127443,-27.660571,-58.310458,23.665057
1784747408.1156,12:10:08.115,2,false,0.622402,-0.338379,0.571106,0.414673,1.00734,-0.044923,-0.127443,-27.616113,-58.251595,23.661259
1784747408.1467,12:10:08.146,3,false,0.622027,-0.338928,0.570923,0.415039,1.004898,-0.053712,-0.123537,-27.516285,-58.288342,23.58307
1784747408.1781,12:10:08.178,4,false,0.621805,-0.339111,0.570923,0.415222,1.004898,-0.057618,-0.113771,-27.575979,-58.351321,23.542609
1784747408.2092,12:10:08.209,5,false,0.621434,-0.339539,0.570984,0.415344,1.003922,-0.046387,-0.115236,-27.420349,-58.363141,23.521147
1784747408.2404,12:10:08.240,6,false,0.621266,-0.339539,0.571167,0.415344,0.99855,-0.044434,-0.112306,-27.57936,-58.403687,23.471924
1784747408.2715,12:10:08.271,7,false,0.620816,-0.339783,0.571289,0.415649,1.000992,-0.049805,-0.115724,-27.677607,-58.425224,23.517346
1784747408.3028,12:10:08.302,8,false,0.620662,-0.339783,0.571411,0.41571,1.005875,-0.044923,-0.112306,-27.6464,-58.4147,23.513365
1784747408.3342,12:10:08.334,9,false,0.620174,-0.339844,0.571594,0.416138,0.990738,-0.053712,-0.1084,-27.663174,-58.330459,23.479874
1784747408.3655,12:10:08.365,10,false,0.619992,-0.340027,0.571594,0.41626,0.999039,-0.043946,-0.108888,-27.618456,-58.374272,23.464686
1784747408.3969,12:10:08.396,11,false,0.619977,-0.339905,0.571594,0.416382,0.996597,-0.053712,-0.122072,-27.518394,-58.294074,23.510832
1784747408.4282,12:10:08.428,12,false,0.620046,-0.339722,0.571716,0.41626,1.00441,-0.053712,-0.120119,-27.562923,-58.266757,23.492548
1784747408.4595,12:10:08.459,13,false,0.620042,-0.339478,0.571777,0.416382,1.003922,-0.061036,-0.118654,-27.662815,-58.27208,23.595723
1784747408.4909,12:10:08.490,14,false,0.620258,-0.338867,0.572083,0.416138,1.009781,-0.05713,-0.110353,-27.677948,-58.27687,23.628765
1784747408.522,12:10:08.522,15,false,0.620089,-0.338867,0.572266,0.416138,1.009293,-0.050294,-0.118654,-27.841106,-58.206412,23.553827
1784747408.5532,12:10:08.553,16,false,0.619614,-0.339294,0.572083,0.416748,0.993668,-0.06006,-0.116213,-27.718779,-58.277584,23.546197
1784747408.5843,12:10:08.584,17,false,0.619473,-0.339355,0.572021,0.416992,1.007828,-0.072267,-0.116213,-27.758223,-58.341639,23.404746
1784747408.6154,12:10:08.615,18,false,0.619398,-0.339417,0.572021,0.417053,1.011734,-0.047364,-0.119142,-27.733908,-58.204889,23.47184
1784747408.6466,12:10:08.646,19,false,0.619509,-0.339233,0.572144,0.41687,0.996597,-0.059571,-0.125002,-27.682116,-58.186491,23.562132
1784747408.6779,12:10:08.677,20,false,0.619653,-0.338989,0.572266,0.416687,0.996597,-0.063478,-0.118166,-27.545781,-58.304517,23.523764
1784747408.7093,12:10:08.709,21,false,0.61962,-0.33905,0.572266,0.416687,1.008316,-0.055177,-0.102541,-27.527756,-58.335971,23.564002
1784747408.7406,12:10:08.740,22,false,0.619579,-0.33905,0.572266,0.416748,0.995621,-0.053712,-0.112795,-27.451718,-58.379233,23.570309
1784747408.7719,12:10:08.771,23,false,0.619597,-0.338989,0.572327,0.416687,1.002457,-0.061524,-0.11133,-27.428145,-58.343401,23.51617
1784747408.8033,12:10:08.803,24,false,0.619538,-0.33905,0.572266,0.416809,1.003922,-0.058595,-0.118166,-27.347114,-58.341059,23.452491
1784747408.8346,12:10:08.834,25,false,0.619571,-0.338989,0.572266,0.416809,0.997574,-0.063478,-0.123537,-27.393817,-58.264182,23.499856
1784747408.866,12:10:08.866,26,false,0.619646,-0.338928,0.572266,0.416748,1.003433,-0.063478,-0.121584,-27.465758,-58.329577,23.497624
1784747408.8971,12:10:08.897,27,false,0.619705,-0.338745,0.572266,0.416809,0.996597,-0.059083,-0.11426,-27.650135,-58.388433,23.495614
1784747408.9282,12:10:08.928,28,false,0.619743,-0.338562,0.572021,0.417236,1.010758,-0.056153,-0.120119,-27.561859,-58.396542,23.374175
1784747408.9594,12:10:08.959,29,false,0.61942,-0.338867,0.571655,0.417969,1.002457,-0.048829,-0.118166,-27.512318,-58.418793,23.249926
1784747408.9905,12:10:08.990,30,false,0.619018,-0.339233,0.571472,0.418518,1.009781,-0.044923,-0.125978,-27.557455,-58.349097,23.153056
1784747409.0217,12:10:09.021,31,false,0.618724,-0.339722,0.571411,0.41864,1.000015,-0.063478,-0.105959,-27.598078,-58.361139,23.275227
1784747409.053,12:10:09.053,0,false,0.618553,-0.340088,0.571289,0.418762,0.999527,-0.060548,-0.112795,-27.559869,-58.401885,23.310411
1784747409.0843,12:10:09.084,1,false,0.618841,-0.339966,0.571228,0.418518,0.995621,-0.071778,-0.110353,-27.555389,-58.483418,23.2374
1784747409.1157,12:10:09.115,2,false,0.619645,-0.339478,0.571228,0.417725,1.004898,-0.049317,-0.128908,-27.611172,-58.467074,23.126828
1784747409.147,12:10:09.147,3,false,0.619888,-0.339539,0.571106,0.41748,1.007828,-0.03418,-0.121096,-27.601562,-58.542088,23.117037
1784747409.1784,12:10:09.178,4,false,0.619983,-0.339722,0.570984,0.417358,1.001968,-0.035157,-0.132815,-27.563005,-58.564739,23.16804
1784747409.2097,12:10:09.209,5,false,0.61983,-0.339905,0.570862,0.417603,1.003922,-0.049317,-0.120119,-27.588119,-58.674848,23.243851
1784747409.2408,12:10:09.240,6,false,0.61936,-0.340271,0.570618,0.418335,1.010758,-0.065431,-0.119142,-27.56586,-58.51973,23.237311
1784747409.272,12:10:09.272,7,false,0.619131,-0.34021,0.570679,0.41864,0.997086,-0.056153,-0.123537,-27.560781,-58.619386,23.321149
1784747409.3031,12:10:09.303,8,false,0.619063,-0.340027,0.570862,0.41864,1.013687,-0.061524,-0.123049,-27.526302,-58.634307,23.291925
1784747409.3343,12:10:09.334,9,false,0.618542,-0.340271,0.570923,0.419128,0.996597,-0.055665,-0.113771,-27.555086,-58.528105,23.355347
1784747409.3654,12:10:09.365,10,false,0.618421,-0.34021,0.571045,0.419189,0.992203,-0.053223,-0.118166,-27.551084,-58.477385,23.352612
1784747409.3967,12:10:09.396,11,false,0.618384,-0.340149,0.571167,0.419128,0.999527,-0.043946,-0.123537,-27.592344,-58.32706,23.424919
1784747409.4281,12:10:09.428,12,false,0.618339,-0.340149,0.57135,0.418945,1.004898,-0.066896,-0.116213,-27.629478,-58.266537,23.594673
1784747409.4594,12:10:09.459,13,false,0.618371,-0.339905,0.571594,0.418762,0.996597,-0.070802,-0.120119,-27.618037,-58.212066,23.538097
1784747409.4907,12:10:09.490,14,false,0.618405,-0.339844,0.571594,0.418762,1.00148,-0.063478,-0.124514,-27.667556,-58.222858,23.472225
1784747409.5221,12:10:09.522,15,false,0.61855,-0.3396,0.571716,0.418579,1.002945,-0.072755,-0.127443,-27.652307,-58.247524,23.457802
1784747409.5534,12:10:09.553,16,false,0.618606,-0.3396,0.571655,0.418579,1.006363,-0.05127,-0.112795,-27.489045,-58.269724,23.594359
1784747409.5848,12:10:09.584,17,false,0.618557,-0.339539,0.571655,0.418701,1.009781,-0.046387,-0.124025,-27.312201,-58.244842,23.6724
1784747409.6161,12:10:09.616,18,false,0.618366,-0.339661,0.571655,0.418884,1.009781,-0.07715,-0.120119,-27.362395,-58.207494,23.652913
1784747409.6472,12:10:09.647,19,false,0.617785,-0.339966,0.571655,0.419495,0.988785,-0.060548,-0.118654,-27.422524,-58.009389,23.515744
1784747409.6784,12:10:09.678,20,false,0.617458,-0.340149,0.571899,0.419495,0.999039,-0.068849,-0.107424,-27.491594,-57.995587,23.511923
1784747409.7095,12:10:09.709,21,false,0.617119,-0.340271,0.572327,0.419312,1.007828,-0.061524,-0.112306,-27.299541,-58.162611,23.583253
1784747409.7407,12:10:09.740,22,false,0.617066,-0.34021,0.57251,0.419189,1.000992,-0.043946,-0.11133,-27.395863,-58.14844,23.527819
1784747409.7718,12:10:09.771,23,false,0.617018,-0.339905,0.572876,0.419006,1.006851,-0.051759,-0.101564,-27.452645,-58.210456,23.477929
1784747409.8031,12:10:09.803,24,false,0.616935,-0.339905,0.572876,0.419128,0.991226,-0.066896,-0.105959,-27.518703,-58.251316,23.418073
1784747409.8345,12:10:09.834,25,false,0.616848,-0.339783,0.572998,0.419189,1.009781,-0.063966,-0.1084,-27.578155,-58.317998,23.394112
1784747409.8658,12:10:09.865,26,false,0.616863,-0.339783,0.572937,0.41925,1.00734,-0.069825,-0.109377,-27.691477,-58.482689,23.31273
1784747409.8972,12:10:09.897,27,false,0.616915,-0.339661,0.572998,0.419189,0.991226,-0.066896,-0.120607,-27.957959,-58.346787,23.374072
1784747409.9285,12:10:09.928,28,false,0.617012,-0.339478,0.573181,0.418945,1.009781,-0.061524,-0.110353,-27.838901,-58.508599,23.444233
1784747409.9596,12:10:09.959,29,false,0.616903,-0.3396,0.573181,0.419006,1.004898,-0.062501,-0.11426,-27.716795,-58.549553,23.417655
1784747409.9908,12:10:09.990,30,false,0.616936,-0.339539,0.573181,0.419006,0.997574,-0.055665,-0.110353,-27.65176,-58.451826,23.498412
1784747410.0219,12:10:10.021,31,false,0.617126,-0.339233,0.573425,0.41864,1.017105,-0.061524,-0.113771,-27.682953,-58.333965,23.586047
1784747410.0531,12:10:10.053,0,false,0.61716,-0.339172,0.573425,0.41864,1.00148,-0.063478,-0.1084,-27.666164,-58.42229,23.70978
1784747410.0842,12:10:10.084,1,false,0.617155,-0.33905,0.573547,0.418579,0.997574,-0.062989,-0.117189,-27.621147,-58.307382,23.701509
1784747410.1153,12:10:10.115,2,false,0.61708,-0.339111,0.573547,0.41864,1.002945,-0.059083,-0.103517,-27.685308,-58.203965,23.694065
1784747410.1465,12:10:10.146,3,false,0.617382,-0.338806,0.573669,0.418274,0.993668,-0.062989,-0.110842,-27.743054,-58.30529,23.762135
1784747410.1778,12:10:10.177,4,false,0.617442,-0.338745,0.57373,0.418152,1.007828,-0.063966,-0.113283,-27.540809,-58.351621,23.79349
1784747410.2092,12:10:10.209,5,false,0.617408,-0.338806,0.57373,0.418152,1.009293,-0.048829,-0.110353,-27.508327,-58.512949,23.74694
1784747410.2405,12:10:10.240,6,false,0.617594,-0.338562,0.573853,0.417908,1.017594,-0.064942,-0.118654,-27.613678,-58.493652,23.794768
1784747410.2718,12:10:10.271,7,false,0.617602,-0.338623,0.573853,0.417847,0.989273,-0.080079,-0.115724,-27.573909,-58.491239,23.777998
1784747410.3032,12:10:10.303,8,false,0.617473,-0.338501,0.573975,0.417969,1.009781,-0.064454,-0.120607,-27.463348,-58.414298,23.762906
1784747410.3343,12:10:10.334,9,false,0.617034,-0.338867,0.574097,0.418152,1.018082,-0.053223,-0.097169,-27.46852,-58.41982,23.644645
1784747410.3655,12:10:10.365,10,false,0.616202,-0.339966,0.574341,0.418152,0.995132,-0.062989,-0.094728,-27.473175,-58.454698,23.762518
1784747410.3966,12:10:10.396,11,false,0.616285,-0.34021,0.574463,0.417664,0.989273,-0.078614,-0.092775,-27.582041,-58.441226,23.808789
1784747410.4277,12:10:10.427,12,false,0.616832,-0.339966,0.574463,0.417053,0.997574,-0.06836,-0.104982,-27.650113,-58.369286,23.730801
1784747410.4589,12:10:10.458,13,false,0.618161,-0.339111,0.574646,0.415527,1.012711,-0.033692,-0.118166,-27.68147,-58.409217,23.840059
1784747410.49,12:10:10.490,14,false,0.618525,-0.338867,0.574707,0.4151,1.013199,-0.044923,-0.107912,-27.784461,-58.295617,23.788852
1784747410.5212,12:10:10.521,15,false,0.61883,-0.338684,0.574707,0.414795,1.018082,-0.039551,-0.109377,-27.817337,-58.298053,23.75772
1784747410.5525,12:10:10.552,16,false,0.618238,-0.33905,0.574951,0.415039,0.997574,-0.04004,-0.098146,-27.831972,-58.345108,23.744655
1784747410.5838,12:10:10.583,17,false,0.617904,-0.33905,0.575134,0.415283,0.996109,-0.048341,-0.109865,-27.904958,-58.372503,23.717943
1784747410.6152,12:10:10.615,18,false,0.617629,-0.338867,0.575317,0.415588,0.997574,-0.078614,-0.103517,-27.895877,-58.292482,23.873348
1784747410.6465,12:10:10.646,19,false,0.617766,-0.338501,0.575562,0.415344,0.999527,-0.084474,-0.119631,-27.902658,-58.414862,23.84872
1784747410.6779,12:10:10.677,20,false,0.618383,-0.33728,0.576538,0.414063,1.01564,-0.054688,-0.101564,-27.90876,-58.450236,23.976093
1784747410.7092,12:10:10.709,21,false,0.619038,-0.336426,0.577209,0.412842,0.995621,-0.033692,-0.102052,-27.779668,-58.362441,23.896329
1784747410.7405,12:10:10.740,22,false,0.619222,-0.335999,0.577393,0.412659,0.994644,-0.045411,-0.102541,-27.857885,-58.358195,24.003988
1784747410.7719,12:10:10.771,23,false,0.618946,-0.335754,0.577087,0.413696,0.996597,-0.05713,-0.110842,-27.883419,-58.53382,24.026111
1784747410.803,12:10:10.803,24,false,0.618685,-0.335693,0.576965,0.414307,1.00734,-0.073732,-0.127443,-27.891445,-58.52739,23.926392
1784747410.8341,12:10:10.834,25,false,0.618112,-0.335327,0.576782,0.41571,1.014176,-0.082033,-0.118166,-27.838854,-58.611326,23.926367
1784747410.8653,12:10:10.865,26,false,0.617744,-0.335266,0.576904,0.416138,1.003433,-0.083009,-0.127443,-27.731706,-58.671915,24.016068
1784747410.8964,12:10:10.896,27,false,0.617014,-0.335449,0.577271,0.416565,1.007828,-0.07422,-0.113771,-27.73995,-58.741398,24.007076
1784747410.9278,12:10:10.927,28,false,0.616424,-0.335571,0.577698,0.416748,1.003433,-0.078614,-0.098634,-27.762323,-58.744118,23.969075
1784747410.9591,12:10:10.959,29,false,0.615978,-0.335876,0.57782,0.416992,0.991226,-0.068849,-0.100099,-27.812367,-58.821335,23.934875
1784747410.9904,12:10:10.990,30,false,0.615506,-0.336304,0.577942,0.417175,1.005875,-0.075685,-0.091798,-27.857406,-58.890831,24.053633
1784747411.0218,12:10:11.021,31,false,0.615523,-0.336243,0.578003,0.417114,0.992203,-0.059571,-0.107912,-27.823172,-58.729069,24.010976
1784747411.0531,12:10:11.053,0,false,0.615466,-0.336243,0.578064,0.417114,0.993668,-0.063478,-0.099123,-27.852177,-58.718068,24.032401
1784747411.0843,12:10:11.084,1,false,0.615802,-0.335632,0.578369,0.416687,1.00734,-0.050782,-0.11133,-27.773605,-58.782936,24.081591
1784747411.1154,12:10:11.115,2,false,0.615762,-0.335571,0.578491,0.416626,1.009293,-0.056641,-0.102052,-27.732797,-58.796456,24.066047
1784747411.1465,12:10:11.146,3,false,0.615326,-0.335571,0.578735,0.416931,1.000504,-0.061524,-0.097169,-27.696071,-58.808624,23.977287
1784747411.1777,12:10:11.177,4,false,0.615308,-0.335632,0.578674,0.416992,0.999527,-0.078126,-0.10547,-27.75274,-58.729852,23.942266
1784747411.2088,12:10:11.208,5,false,0.615151,-0.335693,0.578674,0.417175,0.993668,-0.064454,-0.106447,-27.728972,-58.703819,23.955607
1784747411.24,12:10:11.240,6,false,0.615118,-0.335754,0.578674,0.417175,1.005875,-0.082033,-0.101564,-27.73749,-58.80002,23.9078
1784747411.2711,12:10:11.271,7,false,0.614817,-0.33606,0.578552,0.417542,1.000504,-0.059083,-0.108888,-27.715248,-58.841739,23.924588
1784747411.3022,12:10:11.302,8,false,0.614876,-0.335999,0.578613,0.417419,1.00441,-0.07422,-0.110842,-27.740091,-58.759656,24.014467
1784747411.3336,12:10:11.333,9,false,0.614709,-0.336182,0.578552,0.417603,1.010269,-0.079103,-0.100587,-27.612912,-58.88018,23.915912
1784747411.3649,12:10:11.364,10,false,0.614469,-0.336365,0.578613,0.417725,0.993179,-0.06836,-0.104005,-27.647989,-58.913884,24.036566
1784747411.3963,12:10:11.396,11,false,0.614359,-0.33667,0.578552,0.417725,1.000504,-0.068849,-0.098634,-27.709466,-58.869447,24.040478
1784747411.4276,12:10:11.427,12,false,0.614026,-0.337097,0.578613,0.417786,0.992691,-0.05713,-0.101564,-27.869473,-58.69487,24.029045
1784747411.4589,12:10:11.458,13,false,0.614077,-0.336975,0.578674,0.417725,0.998062,-0.065431,-0.109865,-27.893848,-58.687289,23.914078
1784747411.4901,12:10:11.490,14,false,0.613867,-0.337158,0.578613,0.417969,1.000504,-0.078126,-0.102541,-27.7812,-58.81505,23.7807
1784747411.5212,12:10:11.521,15,false,0.613479,-0.337708,0.578308,0.418518,1.005386,-0.069825,-0.104982,-27.829356,-59.034713,23.705522
1784747411.5524,12:10:11.552,16,false,0.613498,-0.337585,0.578491,0.418335,1.005875,-0.059083,-0.098146,-27.76802,-59.052963,23.772446
1784747411.5835,12:10:11.583,17,false,0.613533,-0.337463,0.578613,0.418213,0.999527,-0.069825,-0.098634,-27.742725,-59.069387,23.757908
1784747411.6146,12:10:11.614,18,false,0.613492,-0.337463,0.578613,0.418274,1.013199,-0.073243,-0.100587,-27.690051,-59.114078,23.714917
1784747411.6458,12:10:11.645,19,false,0.613416,-0.337524,0.578613,0.418335,1.00148,-0.069337,-0.107424,-27.642645,-59.124391,23.646317
1784747411.6769,12:10:11.676,20,false,0.613232,-0.337708,0.578613,0.418457,1.013199,-0.068849,-0.098634,-27.674749,-58.939273,23.539715
1784747411.7083,12:10:11.708,21,false,0.613308,-0.337646,0.578613,0.418396,1.000504,-0.071778,-0.103029,-27.718596,-58.832483,23.757804
1784747411.7396,12:10:11.739,22,false,0.613369,-0.337524,0.578796,0.418152,0.996597,-0.06836,-0.093751,-27.68329,-58.885909,23.774638
1784747411.7709,12:10:11.770,23,false,0.613436,-0.337524,0.578857,0.417969,0.995132,-0.070802,-0.087892,-27.696375,-58.859224,23.849605
1784747411.8023,12:10:11.802,24,false,0.613538,-0.337402,0.579041,0.417664,1.005875,-0.059083,-0.095216,-27.678245,-58.820254,23.827351
1784747411.8334,12:10:11.833,25,false,0.613445,-0.337524,0.578979,0.417786,0.999527,-0.061036,-0.100587,-27.632019,-58.85995,23.807323
1784747411.8646,12:10:11.864,26,false,0.613285,-0.337769,0.578918,0.417908,0.996109,-0.074708,-0.088869,-27.68014,-58.91063,23.714528
1784747411.8959,12:10:11.895,27,false,0.613321,-0.337646,0.579041,0.417786,1.000992,-0.070802,-0.092775,-27.708494,-58.971196,23.780552
1784747411.927,12:10:11.927,28,false,0.613194,-0.33783,0.578979,0.417908,1.015152,-0.075196,-0.106935,-27.734013,-58.876167,23.660527
1784747411.9582,12:10:11.958,29,false,0.613143,-0.337952,0.578918,0.417969,1.003433,-0.07422,-0.100099,-27.742026,-58.925225,23.582412
1784747411.9893,12:10:11.989,30,false,0.613192,-0.338135,0.578979,0.417664,1.004898,-0.084474,-0.105959,-27.7941,-58.879655,23.586877
1784747412.0207,12:10:12.020,31,false,0.613165,-0.33844,0.578918,0.417542,1.009293,-0.064942,-0.103029,-27.796104,-58.823687,23.575943
1784747412.0518,12:10:12.051,0,false,0.613148,-0.338562,0.579041,0.417297,1.008804,-0.059083,-0.089357,-27.797908,-58.877994,23.670779
1784747412.0831,12:10:12.083,1,false,0.613257,-0.33844,0.579041,0.417236,1.00441,-0.069825,-0.097658,-27.964024,-58.837146,23.786038
1784747412.1145,12:10:12.114,2,false,0.613519,-0.338074,0.579285,0.416809,1.00441,-0.057618,-0.11133,-27.978944,-58.815337,23.829957
1784747412.1458,12:10:12.145,3,false,0.613493,-0.338196,0.579285,0.416748,0.989761,-0.064454,-0.092287,-27.962464,-58.870479,23.869483
1784747412.1771,12:10:12.177,4,false,0.613594,-0.338135,0.579346,0.416565,1.013687,-0.053712,-0.09131,-28.022401,-58.845337,23.830288
1784747412.2083,12:10:12.208,5,false,0.613659,-0.338196,0.579285,0.416504,1.003433,-0.073243,-0.09424,-28.106253,-58.852617,23.735197
1784747412.2394,12:10:12.239,6,false,0.613625,-0.338257,0.579285,0.416504,0.989273,-0.052735,-0.100587,-28.166765,-58.769445,23.799154
1784747412.2706,12:10:12.270,7,false,0.613767,-0.338196,0.579346,0.41626,0.994156,-0.068849,-0.102541,-28.131503,-58.679638,23.737084
1784747412.3017,12:10:12.301,8,false,0.613825,-0.338196,0.579285,0.41626,1.009781,-0.055665,-0.103029,-28.204444,-58.67358,23.711128
1784747412.333,12:10:12.333,9,false,0.613832,-0.338257,0.579285,0.416199,0.99855,-0.062501,-0.103517,-28.195322,-58.698035,23.73263
1784747412.3642,12:10:12.364,10,false,0.613834,-0.338196,0.579407,0.416077,0.996109,-0.072755,-0.098634,-28.231973,-58.510691,23.781889
1784747412.3953,12:10:12.395,11,false,0.613783,-0.338318,0.579346,0.416138,1.00148,-0.061524,-0.087892,-28.220098,-58.626205,23.796315
1784747412.4265,12:10:12.426,12,false,0.61401,-0.338013,0.57959,0.41571,1.003922,-0.059083,-0.095216,-28.254272,-58.655398,23.869114
1784747412.4578,12:10:12.457,13,false,0.613959,-0.338135,0.579529,0.415771,1.000504,-0.07715,-0.098634,-28.255121,-58.666718,23.919678
1784747412.4891,12:10:12.489,14,false,0.614,-0.338135,0.579529,0.41571,1.012222,-0.062501,-0.104982,-28.285793,-58.512414,23.980141
1784747412.5205,12:10:12.520,15,false,0.61406,-0.338013,0.579712,0.415466,0.997574,-0.072267,-0.093751,-28.253582,-58.463263,23.840157
1784747412.5518,12:10:12.551,16,false,0.614043,-0.338013,0.579773,0.415405,1.005386,-0.072267,-0.089357,-28.2545,-58.344258,23.998294
1784747412.5832,12:10:12.583,17,false,0.614227,-0.337769,0.579895,0.415161,1.013199,-0.067872,-0.097658,-28.165603,-58.34183,24.020987
1784747412.6145,12:10:12.614,18,false,0.614361,-0.337646,0.579956,0.414978,1.012222,-0.070314,-0.094728,-28.22018,-58.309738,24.131134
1784747412.6458,12:10:12.645,19,false,0.614328,-0.337646,0.580078,0.414856,1.004898,-0.06006,-0.098146,-28.209484,-58.191131,24.140543
1784747412.677,12:10:12.677,20,false,0.61441,-0.337646,0.580078,0.414734,0.99855,-0.056153,-0.100587,-28.259673,-58.293739,24.134057
1784747412.7081,12:10:12.708,21,false,0.61442,-0.337524,0.580139,0.414734,1.006851,-0.076173,-0.092287,-28.379613,-58.341225,24.12822
1784747412.7393,12:10:12.739,22,false,0.614353,-0.337646,0.580139,0.414734,1.005875,-0.065919,-0.089357,-28.248297,-58.339101,24.212689
1784747412.7704,12:10:12.770,23,false,0.61437,-0.337585,0.5802,0.414673,0.998062,-0.076661,-0.099123,-28.16002,-58.441866,24.079358
1784747412.8015,12:10:12.801,24,false,0.614336,-0.337708,0.580078,0.414795,1.002457,-0.064454,-0.102052,-28.095525,-58.325,24.004221
1784747412.8329,12:10:12.832,25,false,0.614268,-0.337891,0.579956,0.414917,0.999527,-0.055177,-0.101564,-28.216925,-58.384314,23.951552
1784747412.8642,12:10:12.864,26,false,0.614149,-0.338196,0.579773,0.4151,0.994156,-0.058595,-0.096193,-28.34114,-58.467604,23.919104
1784747412.8956,12:10:12.895,27,false,0.614148,-0.338318,0.579834,0.414917,1.00148,-0.063966,-0.089357,-28.303394,-58.422934,23.830085
1784747412.9269,12:10:12.926,28,false,0.613897,-0.338623,0.579834,0.415039,1.002945,-0.063966,-0.103029,-28.359146,-58.412639,23.869599
1784747412.9582,12:10:12.958,29,false,0.613857,-0.338562,0.579956,0.414978,0.99855,-0.073243,-0.088869,-28.259784,-58.358511,23.905161
1784747412.9896,12:10:12.989,30,false,0.613908,-0.338379,0.580139,0.414795,1.000015,-0.077638,-0.097169,-28.245128,-58.235028,23.967075
1784747413.0209,12:10:13.020,31,false,0.613833,-0.33844,0.580139,0.414856,1.003922,-0.066407,-0.093751,-28.216984,-58.213615,23.933075
1784747413.0521,12:10:13.052,0,false,0.613922,-0.338623,0.5802,0.41449,1.00441,-0.058106,-0.084474,-28.266423,-58.119575,23.902474
1784747413.0832,12:10:13.083,1,false,0.613862,-0.338806,0.5802,0.414429,1.013687,-0.071778,-0.088869,-28.266057,-58.0798,23.845026
1784747413.1143,12:10:13.114,2,false,0.613793,-0.339111,0.580139,0.414368,1.010758,-0.063966,-0.08838,-28.385358,-58.044003,23.763415
1784747413.1455,12:10:13.145,3,false,0.613667,-0.339294,0.580078,0.41449,1.003433,-0.062501,-0.085451,-28.283375,-58.101509,23.63015
1784747413.1768,12:10:13.176,4,false,0.613647,-0.339539,0.579956,0.41449,0.99855,-0.064942,-0.104005,-28.311221,-58.123356,23.614888
1784747413.2082,12:10:13.208,5,false,0.613401,-0.340027,0.579712,0.414795,1.000015,-0.056153,-0.090333,-28.336283,-58.247696,23.496475
1784747413.2395,12:10:13.239,6,false,0.613522,-0.34021,0.579651,0.414551,1.010758,-0.05713,-0.091798,-28.239207,-58.135293,23.56935
1784747413.2708,12:10:13.270,7,false,0.613513,-0.340271,0.579712,0.414429,1.019547,-0.053712,-0.101076,-28.196701,-58.288347,23.709707
1784747413.3022,12:10:13.302,8,false,0.613586,-0.340393,0.579651,0.414307,1.013199,-0.045411,-0.102052,-28.023861,-58.127018,23.776212
1784747413.3335,12:10:13.333,9,false,0.61371,-0.340332,0.579773,0.414001,1.000015,-0.058595,-0.095216,-27.972982,-58.116407,23.806159
1784747413.3647,12:10:13.364,10,false,0.613776,-0.340332,0.579834,0.413818,1.00734,-0.050782,-0.086427,-27.957098,-58.166672,23.773297
1784747413.396,12:10:13.396,11,false,0.613701,-0.340393,0.579834,0.413879,0.999527,-0.06006,-0.095705,-27.987664,-58.122188,23.878305
1784747413.4271,12:10:13.427,12,false,0.613685,-0.340393,0.579895,0.413818,0.997574,-0.072755,-0.100587,-28.060035,-58.112059,23.853181
1784747413.4583,12:10:13.458,13,false,0.613835,-0.34021,0.580017,0.413574,0.993668,-0.063966,-0.097169,-27.975631,-58.147805,24.010016
1784747413.4894,12:10:13.489,14,false,0.613904,-0.340027,0.580139,0.413452,1.006851,-0.06836,-0.094728,-27.824898,-58.030438,24.091352
1784747413.5206,12:10:13.520,15,false,0.613921,-0.339966,0.5802,0.413391,1.00148,-0.062501,-0.093263,-28.003269,-57.984624,24.074832
1784747413.5517,12:10:13.551,16,false,0.613928,-0.340027,0.5802,0.41333,1.005875,-0.070802,-0.100099,-27.909587,-57.94339,24.089871
1784747413.583,12:10:13.583,17,false,0.613843,-0.34021,0.580139,0.413391,1.011246,-0.052735,-0.095216,-27.900043,-58.010957,24.073498
1784747413.6144,12:10:13.614,18,false,0.613816,-0.340393,0.580017,0.413452,1.006363,-0.044923,-0.087404,-28.040992,-57.996998,24.058763
1784747413.6457,12:10:13.645,19,false,0.613683,-0.340515,0.579956,0.413635,1.001968,-0.058595,-0.095705,-28.10803,-57.999389,23.985686
1784747413.677,12:10:13.677,20,false,0.613775,-0.340393,0.580017,0.413513,0.997086,-0.069825,-0.089845,-28.198272,-57.971633,24.069455
1784747413.7082,12:10:13.708,21,false,0.613851,-0.340271,0.580139,0.41333,1.003433,-0.059571,-0.089357,-28.174813,-58.021421,24.025217
1784747413.7393,12:10:13.739,22,false,0.613834,-0.340271,0.5802,0.413269,1.00441,-0.054688,-0.096681,-28.213516,-58.111093,23.970448
1784747413.7705,12:10:13.770,23,false,0.613773,-0.340515,0.580078,0.41333,1.000504,-0.0542,-0.092287,-28.098809,-58.057212,24.025833
1784747413.8016,12:10:13.801,24,false,0.613763,-0.340637,0.580017,0.41333,1.000992,-0.0542,-0.095705,-28.040435,-58.098443,23.985957
1784747413.8327,12:10:13.832,25,false,0.613626,-0.340942,0.579895,0.413452,1.010269,-0.047364,-0.095216,-27.957991,-58.01592,24.069699
1784747413.8639,12:10:13.863,26,false,0.613627,-0.340881,0.580017,0.41333,1.001968,-0.054688,-0.09424,-27.898745,-58.046326,24.010482
1784747413.895,12:10:13.895,27,false,0.613761,-0.340759,0.580078,0.413147,1.013199,-0.056153,-0.084962,-27.815516,-58.073692,24.106725
1784747413.9262,12:10:13.926,28,false,0.613703,-0.340759,0.580139,0.413147,1.008316,-0.067384,-0.095216,-27.905102,-58.217952,24.133529
1784747413.9575,12:10:13.957,29,false,0.613819,-0.340698,0.580139,0.413025,1.002945,-0.049317,-0.077638,-27.866098,-58.347785,24.202514
1784747413.9888,12:10:13.988,30,false,0.613802,-0.340759,0.580078,0.413086,1.000015,-0.061036,-0.098146,-28.010441,-58.345005,24.234692
1784747414.0202,12:10:14.020,31,false,0.614034,-0.340576,0.5802,0.41272,1.010758,-0.053223,-0.104005,-28.095489,-58.342503,24.203838
1784747414.0515,12:10:14.051,0,false,0.614092,-0.340576,0.580139,0.41272,0.997574,-0.048829,-0.091798,-28.082308,-58.355204,24.191022
1784747414.0829,12:10:14.082,1,false,0.614075,-0.340576,0.5802,0.412659,1.00441,-0.052735,-0.101076,-28.145215,-58.321774,24.179489
1784747414.114,12:10:14.114,2,false,0.614116,-0.340576,0.5802,0.412598,1.016129,-0.054688,-0.092287,-28.186877,-58.321595,24.184062
1784747414.1451,12:10:14.145,3,false,0.614113,-0.34082,0.580017,0.412659,1.011734,-0.043946,-0.102541,-28.029973,-58.381249,24.262947
1784747414.1765,12:10:14.176,4,false,0.614229,-0.340698,0.580139,0.412415,0.992691,-0.057618,-0.095216,-27.88876,-58.479799,24.333944
1784747414.2076,12:10:14.207,5,false,0.614324,-0.340393,0.580261,0.412354,1.007828,-0.05713,-0.096193,-27.836437,-58.344187,24.293164
1784747414.2388,12:10:14.238,6,false,0.614163,-0.340149,0.580444,0.412537,1.010758,-0.055665,-0.092287,-27.774392,-58.311859,24.376093
1784747414.2699,12:10:14.269,7,false,0.614364,-0.339844,0.580627,0.412231,1.003433,-0.071778,-0.097169,-27.897998,-58.207994,24.480637
1784747414.301,12:10:14.301,8,false,0.614439,-0.339722,0.58075,0.412048,1.011246,-0.058595,-0.095705,-27.99429,-58.174331,24.485003
1784747414.3324,12:10:14.332,9,false,0.614473,-0.3396,0.580872,0.411926,1.005386,-0.062013,-0.099123,-27.931414,-58.144035,24.429118
1784747414.3637,12:10:14.363,10,false,0.61448,-0.339661,0.580872,0.411865,1.005386,-0.060548,-0.096193,-27.934641,-58.027045,24.393774
1784747414.3951,12:10:14.395,11,false,0.614263,-0.339966,0.58075,0.412109,1.001968,-0.052735,-0.094728,-28.027268,-58.056339,24.30215
1784747414.4264,12:10:14.426,12,false,0.614212,-0.340088,0.580688,0.41217,1.002457,-0.057618,-0.081544,-28.080725,-58.037841,24.26455
1784747414.4577,12:10:14.457,13,false,0.614069,-0.340332,0.580566,0.412354,1.000015,-0.050294,-0.086427,-28.278375,-58.245501,24.290525
1784747414.4891,12:10:14.489,14,false,0.614094,-0.340332,0.580627,0.412231,1.009293,-0.056641,-0.089357,-28.231952,-58.25295,24.254087
1784747414.5202,12:10:14.520,15,false,0.614135,-0.340271,0.58075,0.412048,1.004898,-0.061036,-0.096193,-28.26494,-58.28956,24.400739
1784747414.5514,12:10:14.551,16,false,0.614386,-0.339844,0.580994,0.411682,1.000504,-0.055665,-0.092287,-28.145092,-58.292603,24.413095
1784747414.5827,12:10:14.582,17,false,0.614461,-0.339722,0.581116,0.411499,0.999527,-0.059083,-0.106935,-28.276489,-58.340202,24.633569
1784747414.6138,12:10:14.613,18,false,0.614718,-0.339417,0.581238,0.411194,1.005875,-0.063966,-0.084474,-28.185393,-58.472765,24.592735
1784747414.645,12:10:14.645,19,false,0.614502,-0.339661,0.581238,0.411316,1.00441,-0.058595,-0.093263,-28.118361,-58.547209,24.615799
1784747414.6761,12:10:14.676,20,false,0.614319,-0.339966,0.580994,0.411682,1.005386,-0.053223,-0.097658,-28.237478,-58.554394,24.606649
1784747414.7075,12:10:14.707,21,false,0.61436,-0.339966,0.580994,0.411621,0.997574,-0.052247,-0.09424,-28.195144,-58.381415,24.598413
1784747414.7388,12:10:14.738,22,false,0.614384,-0.339966,0.581055,0.411499,1.011246,-0.05713,-0.090822,-28.127137,-58.270594,24.441464
1784747414.7701,12:10:14.770,23,false,0.614282,-0.34021,0.580933,0.411621,1.010269,-0.046876,-0.099123,-28.185561,-58.245625,24.479656
1784747414.8015,12:10:14.801,24,false,0.614258,-0.340149,0.580994,0.411621,0.995621,-0.07129,-0.083497,-27.998881,-58.103523,24.424305
1784747414.8328,12:10:14.832,25,false,0.614184,-0.34021,0.580994,0.411682,1.005875,-0.065919,-0.087404,-27.935546,-58.125169,24.509073
1784747414.8642,12:10:14.864,26,false,0.614285,-0.339966,0.581116,0.41156,1.006363,-0.076661,-0.090333,-28.043036,-58.039973,24.465734
1784747414.8955,12:10:14.895,27,false,0.614217,-0.340088,0.581116,0.41156,1.001968,-0.066407,-0.091798,-28.065009,-58.112835,24.381868
1784747414.9266,12:10:14.926,28,false,0.614225,-0.340149,0.581116,0.411499,1.011734,-0.065919,-0.092775,-28.159553,-58.148504,24.426019
1784747414.958,12:10:14.958,29,false,0.614333,-0.339966,0.581238,0.411316,1.006851,-0.050782,-0.085939,-28.199781,-58.090882,24.555478
1784747414.9891,12:10:14.989,30,false,0.614164,-0.340393,0.580994,0.41156,1.000992,-0.063966,-0.089845,-28.400479,-58.158654,24.507498
1784747415.0203,12:10:15.020,31,false,0.614106,-0.340454,0.580933,0.411682,0.982925,-0.054688,-0.095705,-28.28203,-58.26451,24.464317
1784747415.0514,12:10:15.051,0,false,0.614079,-0.340576,0.580933,0.411621,1.010269,-0.045411,-0.090333,-28.235242,-58.299965,24.515177
1784747415.0825,12:10:15.082,1,false,0.614103,-0.340576,0.580994,0.411499,1.005875,-0.046387,-0.092775,-28.208086,-58.092613,24.545997
1784747415.1139,12:10:15.113,2,false,0.614195,-0.340454,0.581055,0.411377,1.008316,-0.053223,-0.093263,-28.213554,-58.055534,24.528873
1784747415.1452,12:10:15.145,3,false,0.614188,-0.340332,0.581177,0.411316,0.997574,-0.059571,-0.091798,-28.263336,-58.052071,24.558324
1784747415.1765,12:10:15.176,4,false,0.614147,-0.340332,0.581177,0.411377,0.991714,-0.071778,-0.096193,-28.188509,-58.123724,24.614737
1784747415.2079,12:10:15.207,5,false,0.614106,-0.340393,0.581055,0.41156,0.997574,-0.056153,-0.097169,-28.046396,-58.038673,24.456155
1784747415.2392,12:10:15.239,6,false,0.614164,-0.340393,0.580994,0.41156,1.008804,-0.056641,-0.090822,-28.112894,-57.962127,24.373246
1784747415.2704,12:10:15.270,7,false,0.614123,-0.340393,0.580994,0.411621,0.991714,-0.05713,-0.096681,-28.023203,-58.012866,24.373398
1784747415.3017,12:10:15.301,8,false,0.613997,-0.340637,0.580811,0.411865,1.004898,-0.058595,-0.097658,-28.121928,-57.983762,24.16418
1784747415.3328,12:10:15.332,9,false,0.613779,-0.341003,0.580566,0.412231,0.999527,-0.0542,-0.092775,-28.165919,-58.0772,24.065608
1784747415.364,12:10:15.364,10,false,0.613728,-0.341125,0.580505,0.412292,1.000504,-0.049805,-0.098146,-28.100834,-58.041662,24.141385
1784747415.3951,12:10:15.395,11,false,0.613735,-0.341187,0.580505,0.412231,1.004898,-0.059083,-0.099611,-27.967488,-57.93491,24.060045
1784747415.4263,12:10:15.426,12,false,0.6137,-0.341309,0.580383,0.412354,1.003433,-0.050294,-0.097658,-27.922246,-57.913602,23.98684
1784747415.4574,12:10:15.457,13,false,0.613741,-0.341309,0.580383,0.412292,1.000504,-0.058106,-0.09424,-28.001159,-57.924332,23.846186
1784747415.4887,12:10:15.488,14,false,0.613632,-0.341492,0.580261,0.412476,0.997574,-0.051759,-0.090822,-28.027319,-58.083528,23.764459
1784747415.5201,12:10:15.520,15,false,0.613648,-0.341553,0.580078,0.412659,1.012711,-0.064942,-0.08838,-28.095725,-58.077265,23.795582
1784747415.5514,12:10:15.551,16,false,0.613642,-0.341431,0.5802,0.412598,1.003922,-0.044923,-0.095705,-28.082521,-58.071629,23.898361
1784747415.5828,12:10:15.582,17,false,0.613549,-0.341553,0.580139,0.41272,1.005875,-0.06006,-0.092775,-28.130452,-58.096465,23.931047
1784747415.6141,12:10:15.614,18,false,0.613734,-0.341309,0.580261,0.412476,1.001968,-0.051759,-0.097169,-28.098822,-58.118816,24.139911
1784747415.6454,12:10:15.645,19,false,0.613659,-0.34137,0.580261,0.412537,1.002945,-0.049805,-0.099123,-28.264754,-58.109025,24.163396
1784747415.6766,12:10:15.676,20,false,0.613573,-0.341614,0.580078,0.41272,1.004898,-0.052735,-0.095705,-28.100062,-58.160028,23.990133
1784747415.7079,12:10:15.707,21,false,0.613538,-0.341736,0.579956,0.412842,1.004898,-0.058595,-0.095216,-28.235963,-58.116208,23.998688
1784747415.7391,12:10:15.739,22,false,0.613511,-0.341919,0.579834,0.412903,0.995621,-0.053712,-0.085451,-28.07415,-58.136586,24.021341
1784747415.7702,12:10:15.770,23,false,0.613268,-0.342163,0.579773,0.413147,0.992691,-0.061524,-0.097658,-28.227596,-58.259602,23.907145
1784747415.8013,12:10:15.801,24,false,0.613168,-0.342224,0.579712,0.41333,1.006363,-0.067872,-0.102541,-28.26102,-58.26564,23.938953
1784747415.8325,12:10:15.832,25,false,0.613364,-0.341797,0.580017,0.412964,0.999527,-0.056641,-0.088869,-28.306056,-58.211259,24.206841
1784747415.8638,12:10:15.863,26,false,0.613683,-0.341431,0.5802,0.412537,0.994644,-0.050782,-0.094728,-28.346588,-58.117454,24.32831
1784747415.8952,12:10:15.895,27,false,0.613775,-0.341309,0.580261,0.412415,1.017594,-0.052247,-0.089845,-28.39802,-57.988169,24.347909
1784747415.9265,12:10:15.926,28,false,0.613973,-0.341248,0.580261,0.41217,1.010758,-0.049317,-0.088869,-28.354587,-57.916673,24.350594
1784747415.9578,12:10:15.957,29,false,0.613939,-0.341309,0.580261,0.41217,1.006851,-0.062989,-0.090822,-28.420173,-58.046727,24.397873
1784747415.9892,12:10:15.989,30,false,0.613929,-0.341431,0.5802,0.41217,0.999527,-0.063478,-0.089357,-28.35957,-57.924514,24.305839
1784747416.0205,12:10:16.020,31,false,0.613952,-0.341492,0.580139,0.41217,1.002457,-0.038575,-0.095705,-28.424659,-57.904245,24.237962
1784747416.0517,12:10:16.051,0,false,0.613915,-0.341797,0.579956,0.412231,1.00148,-0.055177,-0.103029,-28.25893,-57.990681,24.146965
1784747416.0828,12:10:16.082,1,false,0.613846,-0.34198,0.579834,0.412354,1.00441,-0.049805,-0.094728,-28.453713,-57.993702,24.139837
1784747416.1139,12:10:16.113,2,false,0.61387,-0.342041,0.579773,0.412354,1.007828,-0.056153,-0.086427,-28.494433,-57.981469,24.253052
1784747416.1451,12:10:16.145,3,false,0.613928,-0.34198,0.579834,0.412231,1.00734,-0.045899,-0.089845,-28.456312,-58.149905,24.325039
1784747416.1762,12:10:16.176,4,false,0.613969,-0.34198,0.579834,0.41217,1.006363,-0.052247,-0.081544,-28.287419,-58.256636,24.225334
1784747416.2074,12:10:16.207,5,false,0.613665,-0.342468,0.579651,0.412476,1.011734,-0.062501,-0.090822,-28.19523,-58.397555,24.150554
1784747416.2387,12:10:16.238,6,false,0.61374,-0.342346,0.579773,0.412292,1.00148,-0.062989,-0.090333,-28.157121,-58.419705,24.307559
1784747416.27,12:10:16.270,7,false,0.613983,-0.342041,0.579956,0.411926,0.995132,-0.06006,-0.099123,-28.227501,-58.290102,24.404002
1784747416.3014,12:10:16.301,8,false,0.614168,-0.341797,0.580078,0.411682,0.996109,-0.053223,-0.087404,-28.231027,-58.263183,24.371171
1784747416.3327,12:10:16.332,9,false,0.613915,-0.342224,0.579834,0.412048,1.010269,-0.063478,-0.102541,-28.219246,-58.194093,24.386484
1784747416.3639,12:10:16.363,10,false,0.614239,-0.34198,0.579895,0.411682,1.006363,-0.047364,-0.092775,-28.133874,-58.386128,24.265681
1784747416.395,12:10:16.395,11,false,0.614129,-0.342163,0.579773,0.411865,1.003922,-0.059083,-0.09424,-28.176671,-58.48419,24.261635
1784747416.4261,12:10:16.426,12,false,0.614113,-0.342163,0.579834,0.411804,1.011246,-0.055665,-0.09131,-28.155372,-58.407954,24.272948
1784747416.4573,12:10:16.457,13,false,0.61417,-0.342163,0.579773,0.411804,1.008316,-0.050294,-0.103517,-28.076388,-58.429065,24.342944
1784747416.4884,12:10:16.488,14,false,0.614205,-0.342041,0.579895,0.411682,1.008316,-0.066407,-0.083497,-28.050164,-58.418156,24.301265
1784747416.5196,12:10:16.519,15,false,0.614368,-0.342041,0.579895,0.411438,1.002457,-0.05713,-0.09424,-28.026562,-58.213939,24.577783
1784747416.5507,12:10:16.550,16,false,0.61457,-0.341736,0.580078,0.411133,1.00441,-0.046387,-0.091798,-27.945505,-58.269405,24.482712
1784747416.582,12:10:16.582,17,false,0.614767,-0.341675,0.580078,0.410889,1.005875,-0.049317,-0.091798,-27.962276,-58.199693,24.531732
1784747416.6134,12:10:16.613,18,false,0.615032,-0.341431,0.5802,0.410522,1.005875,-0.056641,-0.097658,-28.022232,-58.092091,24.605758
1784747416.6447,12:10:16.644,19,false,0.615069,-0.341614,0.580139,0.4104,1.016129,-0.034668,-0.100587,-28.240685,-58.084973,24.62752
1784747416.6761,12:10:16.676,20,false,0.615141,-0.341675,0.5802,0.410156,1.019547,-0.045899,-0.094728,-28.362523,-58.153335,24.497567
1784747416.7074,12:10:16.707,21,false,0.614998,-0.341919,0.580078,0.410339,1.002945,-0.058595,-0.079591,-28.307686,-58.199907,24.440425
1784747416.7387,12:10:16.738,22,false,0.615131,-0.341675,0.580383,0.409912,0.99855,-0.070802,-0.100587,-28.363008,-58.062376,24.598351
1784747416.7701,12:10:16.770,23,false,0.615286,-0.341614,0.580383,0.409729,1.005386,-0.055665,-0.100587,-28.352984,-58.058229,24.620854
1784747416.8012,12:10:16.801,24,false,0.615503,-0.341797,0.580261,0.409424,1.00148,-0.043946,-0.07422,-28.448638,-58.084405,24.446706
1784747416.8323,12:10:16.832,25,false,0.615698,-0.342346,0.579773,0.409363,1.005875,-0.047852,-0.093751,-28.400143,-58.078055,24.304927
1784747416.8635,12:10:16.863,26,false,0.615935,-0.342346,0.579651,0.40918,1.005386,-0.05127,-0.091798,-28.371451,-58.027478,24.401634
1784747416.8946,12:10:16.894,27,false,0.616276,-0.342285,0.579712,0.40863,1.009781,-0.043946,-0.09131,-28.360582,-58.026821,24.398946
1784747416.9258,12:10:16.925,28,false,0.616438,-0.342346,0.57959,0.408508,0.999039,-0.038087,-0.096193,-28.261076,-57.981368,24.411482
1784747416.9569,12:10:16.956,29,false,0.616457,-0.34259,0.579468,0.408447,1.014176,-0.035645,-0.086915,-28.081799,-57.985321,24.40781
1784747416.9882,12:10:16.988,30,false,0.616362,-0.342896,0.579346,0.408508,1.009781,-0.043458,-0.092775,-28.219526,-58.10851,24.404505
1784747417.0196,12:10:17.019,31,false,0.616443,-0.342957,0.579224,0.408508,0.998062,-0.050782,-0.089845,-28.298618,-58.069842,24.401531
1784747417.0509,12:10:17.050,0,false,0.616483,-0.343018,0.579102,0.408569,1.00148,-0.05127,-0.095216,-28.339894,-57.990179,24.264269
1784747417.0823,12:10:17.082,1,false,0.616462,-0.343323,0.578857,0.408691,1.011734,-0.038087,-0.092775,-28.391996,-57.94839,24.185595
1784747417.1134,12:10:17.113,2,false,0.616468,-0.343384,0.578857,0.40863,0.999527,-0.046876,-0.089845,-28.438888,-57.836011,24.15965
1784747417.1447,12:10:17.144,3,false,0.616549,-0.343445,0.578735,0.40863,0.998062,-0.052735,-0.094728,-28.421275,-57.8545,24.181162
1784747417.1759,12:10:17.175,4,false,0.616538,-0.343567,0.578674,0.40863,1.008804,-0.04004,-0.092775,-28.480193,-57.916002,24.200522
1784747417.207,12:10:17.207,5,false,0.616625,-0.343689,0.578552,0.408569,1.008316,-0.034668,-0.095705,-28.443496,-57.881631,24.202992
1784747417.2382,12:10:17.238,6,false,0.61655,-0.343811,0.57843,0.408752,0.997574,-0.043946,-0.09424,-28.500191,-57.760974,24.085584
1784747417.2693,12:10:17.269,7,false,0.616573,-0.343872,0.578369,0.408752,1.010269,-0.029786,-0.099123,-28.611033,-57.742105,23.964963
1784747417.3004,12:10:17.300,8,false,0.616538,-0.344055,0.578125,0.408997,0.999527,-0.047852,-0.099611,-28.650975,-57.740078,23.826497
1784747417.3318,12:10:17.331,9,false,0.616527,-0.344177,0.578064,0.408997,1.009781,-0.047852,-0.098146,-28.612153,-57.738253,23.851416
1784747417.3631,12:10:17.363,10,false,0.616527,-0.344177,0.578064,0.408997,1.002945,-0.044923,-0.101564,-28.397768,-57.691749,23.828981
1784747417.3945,12:10:17.394,11,false,0.616527,-0.344238,0.577942,0.409119,1.013199,-0.044434,-0.10547,-28.27959,-57.694757,23.928421
1784747417.4258,12:10:17.425,12,false,0.61655,-0.344299,0.577881,0.409119,1.000504,-0.043458,-0.10547,-28.128369,-57.772233,23.868378
1784747417.4571,12:10:17.457,13,false,0.616458,-0.344421,0.57782,0.409241,0.999527,-0.055177,-0.099611,-28.201623,-57.827008,23.904063
1784747417.4885,12:10:17.488,14,false,0.61659,-0.34436,0.577759,0.40918,1.003922,-0.045411,-0.094728,-28.192783,-57.876305,23.966086
1784747417.5198,12:10:17.519,15,false,0.616579,-0.344482,0.577698,0.40918,0.993668,-0.033204,-0.091798,-28.199781,-58.010396,24.006954
1784747417.5512,12:10:17.551,16,false,0.61666,-0.344482,0.577698,0.409058,1.00441,-0.053712,-0.099611,-28.161217,-57.966585,24.10355
1784747417.5823,12:10:17.582,17,false,0.616723,-0.344543,0.577637,0.408997,1.00734,-0.039063,-0.098634,-28.246141,-58.016879,24.175533
1784747417.6134,12:10:17.613,18,false,0.616695,-0.344727,0.577515,0.409058,1.003922,-0.03418,-0.08838,-28.173034,-57.912605,24.195456
1784747417.6446,12:10:17.644,19,false,0.616765,-0.344849,0.577454,0.408936,1.013199,-0.041016,-0.097169,-28.167052,-57.98325,24.168525
1784747417.6757,12:10:17.675,20,false,0.616707,-0.344849,0.577515,0.408936,1.000504,-0.049805,-0.085451,-28.056993,-58.016923,24.248964
1784747417.7069,12:10:17.706,21,false,0.616822,-0.344788,0.577515,0.408813,1.006363,-0.045899,-0.099611,-28.0028,-57.882737,24.231636
1784747417.7382,12:10:17.738,22,false,0.616644,-0.345154,0.577271,0.409119,1.003433,-0.044923,-0.108888,-28.148427,-57.896554,24.245948
1784747417.7695,12:10:17.769,23,false,0.616707,-0.345215,0.577209,0.409058,1.005386,-0.045411,-0.090822,-28.055183,-57.804312,24.25883
1784747417.8009,12:10:17.800,24,false,0.616949,-0.345276,0.577087,0.408813,1.00148,-0.052735,-0.097658,-28.15071,-57.751202,24.135838
1784747417.8322,12:10:17.832,25,false,0.616932,-0.345337,0.577026,0.408875,1.007828,-0.039063,-0.100587,-28.266592,-57.658541,24.010192
1784747417.8636,12:10:17.863,26,false,0.616919,-0.34552,0.576843,0.408997,1.016129,-0.028809,-0.097169,-28.340978,-57.620009,23.762526
1784747417.8949,12:10:17.894,27,false,0.616746,-0.345947,0.576599,0.409241,0.997086,-0.038087,-0.096193,-28.363064,-57.615237,23.704119
1784747417.9262,12:10:17.926,28,false,0.617046,-0.345642,0.576721,0.408875,1.000015,-0.045411,-0.102052,-28.427803,-57.521219,23.816045
1784747417.9574,12:10:17.957,29,false,0.617075,-0.345764,0.57666,0.408813,1.007828,-0.025879,-0.102541,-28.336529,-57.496418,23.842009
1784747417.9885,12:10:17.988,30,false,0.617064,-0.345886,0.576599,0.408813,0.998062,-0.032715,-0.101564,-28.314199,-57.384375,23.910238
1784747418.0196,12:10:18.019,31,false,0.617075,-0.346069,0.576477,0.408813,1.003433,-0.035645,-0.093751,-28.234286,-57.41812,23.881921
1784747418.0508,12:10:18.050,0,false,0.617098,-0.34613,0.576416,0.408813,1.006363,-0.029297,-0.099123,-28.162364,-57.373722,23.901297
1784747418.0819,12:10:18.081,1,false,0.617138,-0.34613,0.576416,0.408752,1.001968,-0.046387,-0.104494,-28.172404,-57.258994,23.918736
1784747418.1133,12:10:18.113,2,false,0.617294,-0.346069,0.576416,0.408569,1.009293,-0.03711,-0.092287,-28.211347,-57.215554,23.8148
1784747418.1446,12:10:18.144,3,false,0.617392,-0.346008,0.576477,0.408386,1.006363,-0.033204,-0.101076,-28.246396,-57.101689,23.930612
1784747418.1759,12:10:18.175,4,false,0.617397,-0.34613,0.576355,0.408447,0.997574,-0.039551,-0.100099,-28.367663,-57.193611,23.900258
1784747418.2073,12:10:18.207,5,false,0.617455,-0.346069,0.576416,0.408325,1.008804,-0.041993,-0.090822,-28.26745,-57.15671,24.082293
1784747418.2386,12:10:18.238,6,false,0.617536,-0.346069,0.576416,0.408203,1.002945,-0.033692,-0.095705,-28.34175,-57.138452,24.111539
1784747418.27,12:10:18.270,7,false,0.617547,-0.346252,0.576294,0.408203,1.013687,-0.032715,-0.101076,-28.378713,-57.047251,24.107954
1784747418.3012,12:10:18.301,8,false,0.617645,-0.346252,0.576233,0.408142,1.004898,-0.04004,-0.103029,-28.441887,-57.069848,24.029958
1784747418.3323,12:10:18.332,9,false,0.617703,-0.34613,0.576416,0.407898,1.003922,-0.042481,-0.096193,-28.528651,-57.120092,24.124254
1784747418.3635,12:10:18.363,10,false,0.617668,-0.346252,0.576294,0.40802,1.006851,-0.053223,-0.091798,-28.621693,-57.284942,24.044627
1784747418.3946,12:10:18.394,11,false,0.617582,-0.346436,0.576233,0.408081,1.010758,-0.035157,-0.099123,-28.720384,-57.238908,23.95801
1784747418.4258,12:10:18.425,12,false,0.617657,-0.346375,0.576233,0.40802,1.012711,-0.045899,-0.101564,-28.659668,-57.272246,24.089408
1784747418.4569,12:10:18.456,13,false,0.61783,-0.346191,0.576416,0.407654,0.995132,-0.039063,-0.101564,-28.530254,-57.227481,24.132898
1784747418.4882,12:10:18.488,14,false,0.617963,-0.346069,0.576477,0.407471,1.004898,-0.048829,-0.093263,-28.712858,-57.29187,24.172038
1784747418.5196,12:10:18.519,15,false,0.617906,-0.346069,0.576538,0.407471,1.003922,-0.032227,-0.089845,-28.652895,-57.319912,24.177356
1784747418.5509,12:10:18.550,16,false,0.61798,-0.346008,0.576538,0.40741,1.000992,-0.049317,-0.101076,-28.733512,-57.46478,24.271866
1784747418.5823,12:10:18.582,17,false,0.618037,-0.346008,0.576477,0.40741,1.002457,-0.041505,-0.095705,-28.746252,-57.5503,24.192433
1784747418.6134,12:10:18.613,18,false,0.618112,-0.345886,0.576599,0.407227,1.006363,-0.037598,-0.109865,-28.817534,-57.492684,24.180758
1784747418.6445,12:10:18.644,19,false,0.618272,-0.345947,0.576477,0.407104,1.00734,-0.035157,-0.100587,-28.821872,-57.530552,24.334743
1784747418.6759,12:10:18.675,20,false,0.618238,-0.346008,0.576477,0.407104,1.014664,-0.036133,-0.089357,-28.84073,-57.504818,24.263975
1784747418.707,12:10:18.707,21,false,0.618089,-0.34613,0.576477,0.407227,1.012222,-0.048341,-0.098146,-28.842748,-57.616242,24.230192
1784747418.7382,12:10:18.738,22,false,0.6179,-0.346313,0.576355,0.407532,1.000504,-0.046387,-0.09424,-28.635211,-57.626801,24.139973
1784747418.7693,12:10:18.769,23,false,0.617991,-0.346191,0.576416,0.40741,0.99855,-0.048829,-0.101076,-28.702643,-57.62135,24.073728
1784747418.8006,12:10:18.800,24,false,0.617956,-0.346313,0.576294,0.407532,0.997574,-0.042969,-0.102541,-28.613793,-57.616444,24.163647
1784747418.832,12:10:18.832,25,false,0.618083,-0.34613,0.576355,0.40741,1.005875,-0.039063,-0.095216,-28.533828,-57.612028,24.244574
1784747418.8631,12:10:18.863,26,false,0.618088,-0.346252,0.576233,0.407471,1.011246,-0.037598,-0.101076,-28.551583,-57.652916,24.182823
1784747418.8945,12:10:18.894,27,false,0.61807,-0.346313,0.576172,0.407532,0.985367,-0.040528,-0.10547,-28.627378,-57.599992,24.112294
1784747418.9258,12:10:18.925,28,false,0.618012,-0.346375,0.576111,0.407654,1.00441,-0.048341,-0.095216,-28.620824,-57.731806,24.123587
1784747418.9571,12:10:18.957,29,false,0.617925,-0.346619,0.575928,0.407837,1.016129,-0.037598,-0.098634,-28.55511,-57.760716,24.044028
1784747418.9885,12:10:18.988,30,false,0.617741,-0.346863,0.575806,0.408081,0.996597,-0.037598,-0.10547,-28.525875,-57.711966,24.047193
1784747419.0198,12:10:19.019,31,false,0.61769,-0.346924,0.575867,0.40802,1.014664,-0.041505,-0.096681,-28.40984,-57.653137,24.139766
1784747419.0512,12:10:19.051,0,false,0.617742,-0.346802,0.575928,0.407959,0.995132,-0.030762,-0.097169,-28.454948,-57.525421,24.178219
1784747419.0823,12:10:19.082,1,false,0.617817,-0.346741,0.575928,0.407898,0.996109,-0.027832,-0.101076,-28.465637,-57.530108,24.257689
1784747419.1134,12:10:19.113,2,false,0.617839,-0.346802,0.575867,0.407898,1.018082,-0.039551,-0.092775,-28.49021,-57.579188,24.060042
1784747419.1446,12:10:19.144,3,false,0.61788,-0.346802,0.575867,0.407837,0.996597,-0.043458,-0.09131,-28.542235,-57.623359,24.061606
1784747419.1757,12:10:19.175,4,false,0.61803,-0.346619,0.575989,0.407593,1.002457,-0.038575,-0.088869,-28.574103,-57.573391,24.077968
1784747419.2069,12:10:19.206,5,false,0.617937,-0.346741,0.575928,0.407715,1.00734,-0.04004,-0.09131,-28.542968,-57.737773,24.07774
1784747419.238,12:10:19.238,6,false,0.617972,-0.34668,0.575928,0.407715,1.009293,-0.045899,-0.093263,-28.574763,-57.795994,24.167257
1784747419.2693,12:10:19.269,7,false,0.617937,-0.346741,0.575928,0.407715,1.012711,-0.040528,-0.097169,-28.438886,-57.743716,24.113239
1784747419.3007,12:10:19.300,8,false,0.61792,-0.346802,0.575867,0.407776,0.994644,-0.047364,-0.1084,-28.406319,-57.681712,24.199206
1784747419.332,12:10:19.332,9,false,0.618213,-0.346436,0.575989,0.407471,1.020035,-0.047364,-0.099611,-28.272333,-57.745539,24.351346
1784747419.3631,12:10:19.363,10,false,0.618149,-0.346436,0.575928,0.407654,0.994156,-0.035645,-0.100587,-28.346145,-57.593629,24.249011
1784747419.3943,12:10:19.394,11,false,0.618166,-0.346375,0.575989,0.407593,1.008316,-0.030274,-0.104494,-28.442483,-57.471864,24.216724
1784747419.4254,12:10:19.425,12,false,0.618154,-0.346252,0.575989,0.407715,1.009293,-0.047364,-0.101564,-28.424511,-57.422092,24.157759
1784747419.4566,12:10:19.456,13,false,0.617999,-0.346313,0.575989,0.407898,1.004898,-0.03418,-0.103029,-28.363474,-57.39225,24.089736
1784747419.4877,12:10:19.487,14,false,0.617948,-0.346436,0.575928,0.407959,1.004898,-0.041993,-0.096681,-28.323495,-57.320531,24.088331
1784747419.5188,12:10:19.518,15,false,0.617827,-0.346436,0.575928,0.408142,0.994644,-0.048829,-0.096681,-28.317422,-57.360661,24.042205
1784747419.55,12:10:19.550,16,false,0.617682,-0.346436,0.575867,0.408447,1.002945,-0.045899,-0.092287,-28.192325,-57.411731,24.030599
1784747419.5811,12:10:19.581,17,false,0.617664,-0.346497,0.575806,0.408508,1.005875,-0.034668,-0.087892,-28.184415,-57.278249,23.975292
1784747419.6123,12:10:19.612,18,false,0.617658,-0.346436,0.575806,0.408569,0.996109,-0.044434,-0.097658,-28.296926,-57.382422,24.000285
1784747419.6436,12:10:19.643,19,false,0.617733,-0.346069,0.575989,0.408508,1.007828,-0.039551,-0.096681,-28.203786,-57.476178,24.052687
1784747419.6749,12:10:19.674,20,false,0.617888,-0.345703,0.576172,0.408325,1.010758,-0.055177,-0.110842,-28.254545,-57.60542,24.159663
1784747419.7063,12:10:19.706,21,false,0.617538,-0.345459,0.576477,0.40863,1.012222,-0.041016,-0.090822,-28.300228,-57.646968,24.151266
1784747419.7376,12:10:19.737,22,false,0.617467,-0.345093,0.576599,0.408875,1.010758,-0.058595,-0.10547,-28.191805,-57.684362,24.068938
1784747419.769,12:10:19.769,23,false,0.617166,-0.345215,0.576416,0.409485,1.011734,-0.056641,-0.106447,-28.243762,-57.688109,24.099521
1784747419.8001,12:10:19.800,24,false,0.61724,-0.345154,0.576416,0.409424,1.001968,-0.055665,-0.106447,-28.290523,-57.616711,24.097137
1784747419.8312,12:10:19.831,25,false,0.617367,-0.344971,0.576477,0.409302,1.00734,-0.047852,-0.10547,-28.437285,-57.627223,24.1249
1784747419.8624,12:10:19.862,26,false,0.617574,-0.344788,0.576538,0.409058,0.996597,-0.03711,-0.102052,-28.44974,-57.651637,24.134932
1784747419.8935,12:10:19.893,27,false,0.617499,-0.344849,0.576538,0.409119,1.000015,-0.048829,-0.092287,-28.490858,-57.67361,24.173869
1784747419.9249,12:10:19.924,28,false,0.61744,-0.344666,0.576538,0.409363,1.000504,-0.046387,-0.105959,-28.468048,-57.603663,24.089281
1784747419.956,12:10:19.956,29,false,0.617317,-0.344727,0.576416,0.409668,0.993179,-0.04004,-0.101564,-28.327889,-57.525756,23.998198
1784747419.9871,12:10:19.987,30,false,0.61742,-0.344849,0.576233,0.409668,1.006363,-0.048341,-0.103029,-28.351283,-57.635086,23.916224
1784747420.0185,12:10:20.018,31,false,0.617465,-0.344666,0.576294,0.409668,1.012711,-0.044923,-0.106935,-28.342431,-57.643761,24.036847
1784747420.0498,12:10:20.049,0,false,0.617654,-0.344238,0.576477,0.409485,1.011246,-0.038087,-0.104982,-28.409233,-57.651567,24.175315
1784747420.0812,12:10:20.081,1,false,0.617611,-0.34436,0.576233,0.40979,1.007828,-0.046876,-0.102052,-28.424494,-57.598778,24.150398
1784747420.1125,12:10:20.112,2,false,0.617599,-0.344177,0.576355,0.40979,1.006363,-0.049805,-0.110842,-28.363459,-57.626037,24.187789
1784747420.1438,12:10:20.143,3,false,0.617079,-0.344543,0.576477,0.410095,1.020035,-0.041016,-0.106935,-28.338435,-57.545893,24.161624
1784747420.1752,12:10:20.175,4,false,0.616417,-0.344666,0.576721,0.410645,1.00441,-0.043946,-0.096681,-28.375729,-57.638256,24.048353
1784747420.2063,12:10:20.206,5,false,0.615567,-0.344727,0.577026,0.411438,1.000015,-0.053223,-0.096193,-28.409294,-57.571844,23.871641
1784747420.2375,12:10:20.237,6,false,0.61435,-0.344299,0.577576,0.412842,0.999527,-0.06006,-0.103029,-28.379687,-57.452258,23.906999
1784747420.2686,12:10:20.268,7,false,0.613992,-0.343811,0.577942,0.413269,0.993179,-0.065431,-0.104982,-28.442763,-57.479215,23.953775
1784747420.2997,12:10:20.299,8,false,0.614043,-0.343323,0.578308,0.413086,0.997574,-0.061524,-0.095705,-28.260271,-57.368891,23.951012
1784747420.3309,12:10:20.330,9,false,0.61417,-0.34314,0.578369,0.412964,1.005875,-0.062013,-0.081056,-28.230612,-57.329416,24.038249
1784747420.3622,12:10:20.362,10,false,0.613894,-0.343384,0.57843,0.413086,0.990249,-0.049317,-0.087892,-28.203919,-57.592965,23.997131
1784747420.3936,12:10:20.393,11,false,0.613878,-0.343384,0.578491,0.413025,0.999039,-0.046876,-0.097658,-28.254665,-57.755389,23.82554
1784747420.4249,12:10:20.424,12,false,0.614024,-0.343079,0.57843,0.413147,1.00734,-0.066407,-0.096193,-28.165751,-57.811849,23.865508
1784747420.4562,12:10:20.456,13,false,0.614437,-0.342529,0.578491,0.412903,1.000992,-0.0542,-0.107912,-28.130591,-57.743031,23.931388
1784747420.4876,12:10:20.487,14,false,0.61484,-0.342041,0.578613,0.412537,0.999527,-0.05713,-0.101564,-28.278392,-57.651188,23.930863
1784747420.5189,12:10:20.518,15,false,0.615394,-0.341309,0.578674,0.412231,1.017105,-0.055665,-0.104982,-28.172152,-57.837698,24.020115
1784747420.5502,12:10:20.550,16,false,0.615519,-0.341187,0.578613,0.412231,1.016129,-0.062501,-0.105959,-28.181213,-57.975649,24.130349
1784747420.5814,12:10:20.581,17,false,0.615652,-0.341064,0.578674,0.412048,1.011246,-0.070314,-0.099611,-28.234229,-57.905406,24.124882
1784747420.6127,12:10:20.612,18,false,0.615343,-0.341431,0.578613,0.412292,1.011734,-0.079103,-0.087404,-28.147359,-57.946863,24.060147
1784747420.6439,12:10:20.643,19,false,0.615059,-0.341736,0.57843,0.41272,1.00441,-0.061524,-0.092775,-28.128992,-58.073898,24.061701
1784747420.675,12:10:20.675,20,false,0.615018,-0.341736,0.57843,0.412781,1.013199,-0.067872,-0.102541,-28.142369,-58.068599,24.137868
1784747420.7061,12:10:20.706,21,false,0.615047,-0.341919,0.578247,0.412842,1.000504,-0.065919,-0.100587,-28.214223,-58.093737,24.012019
1784747420.7373,12:10:20.737,22,false,0.615631,-0.341797,0.578003,0.412415,1.003433,-0.063966,-0.103029,-28.1144,-58.056546,23.973524
1784747420.7686,12:10:20.768,23,false,0.616075,-0.341675,0.57782,0.412109,1.000992,-0.048341,-0.097658,-28.099328,-57.918398,24.05851
1784747420.8,12:10:20.800,24,false,0.616858,-0.341248,0.577759,0.411377,1.004898,-0.047852,-0.10547,-28.115672,-57.928648,24.060227
1784747420.8313,12:10:20.831,25,false,0.617209,-0.340759,0.577759,0.411255,0.999527,-0.053223,-0.103517,-28.175242,-57.863105,24.241219
1784747420.8626,12:10:20.862,26,false,0.617527,-0.340271,0.577881,0.411011,1.014176,-0.041993,-0.103029,-28.139132,-57.789162,24.269527
1784747420.894,12:10:20.894,27,false,0.617516,-0.340454,0.577698,0.411133,1.001968,-0.053223,-0.112306,-28.106634,-57.946921,24.265097
1784747420.9253,12:10:20.925,28,false,0.6174,-0.340576,0.577576,0.411377,1.008804,-0.05713,-0.104982,-28.017569,-58.029088,24.276063
1784747420.9565,12:10:20.956,29,false,0.617399,-0.340698,0.577332,0.411621,1.016617,-0.059083,-0.104494,-27.997227,-58.088085,24.19621
1784747420.9876,12:10:20.987,30,false,0.617266,-0.34082,0.577271,0.411804,1.003433,-0.055665,-0.100099,-27.993873,-58.081367,24.258927
1784747421.0187,12:10:21.018,31,false,0.617341,-0.340759,0.577271,0.411743,0.995621,-0.053223,-0.100587,-28.020761,-58.075321,24.315372
1784747421.0499,12:10:21.049,0,false,0.617365,-0.340759,0.577332,0.411621,1.00148,-0.059571,-0.10547,-28.030007,-58.025018,24.231588
1784747421.081,12:10:21.081,1,false,0.617494,-0.34082,0.577332,0.411377,1.010758,-0.047852,-0.102541,-28.098144,-58.024607,24.320674
1784747421.1124,12:10:21.112,2,false,0.617335,-0.341064,0.577271,0.411499,1.008316,-0.070314,-0.102052,-28.159467,-58.069098,24.191498
1784747421.1437,12:10:21.143,3,false,0.617157,-0.341431,0.577026,0.411804,1.000015,-0.045899,-0.109865,-28.214658,-58.318494,24.105148
1784747421.175,12:10:21.175,4,false,0.61729,-0.341309,0.577087,0.411621,1.005386,-0.050782,-0.10547,-28.144699,-58.213966,24.236786
1784747421.2064,12:10:21.206,5,false,0.617446,-0.341248,0.577087,0.411438,1.011734,-0.05127,-0.110353,-28.216321,-58.179706,24.265537
1784747421.2377,12:10:21.237,6,false,0.61752,-0.341187,0.577087,0.411377,1.005875,-0.044434,-0.108888,-28.206011,-58.193733,24.261506
1784747421.2691,12:10:21.269,7,false,0.617486,-0.341248,0.577087,0.411377,1.016617,-0.048341,-0.101076,-28.166824,-58.161497,24.257878
1784747421.3004,12:10:21.300,8,false,0.617418,-0.341431,0.576965,0.411499,0.992203,-0.042481,-0.102541,-28.071741,-58.192299,24.239658
1784747421.3317,12:10:21.331,9,false,0.617282,-0.341736,0.576843,0.411621,1.006363,-0.043458,-0.101076,-28.120751,-58.205067,24.268123
1784747421.3629,12:10:21.362,10,false,0.617245,-0.341919,0.576904,0.411438,1.006363,-0.062013,-0.096681,-28.105044,-58.081974,24.323648
1784747421.394,12:10:21.394,11,false,0.617303,-0.341858,0.576965,0.411316,1.003922,-0.05127,-0.093751,-28.150723,-57.986144,24.313806
1784747421.4254,12:10:21.425,12,false,0.617348,-0.342041,0.577026,0.411011,0.997086,-0.053223,-0.093751,-28.191835,-57.86999,24.27504
1784747421.4565,12:10:21.456,13,false,0.617411,-0.342102,0.577271,0.410522,1.005875,-0.041016,-0.09424,-28.154066,-57.720589,24.299966
1784747421.4876,12:10:21.487,14,false,0.617473,-0.342224,0.577393,0.410156,1.000992,-0.027344,-0.092287,-28.090166,-57.720713,24.307445
1784747421.519,12:10:21.519,15,false,0.617543,-0.342346,0.577332,0.410034,1.000504,-0.052247,-0.101076,-28.032656,-57.750732,24.284269
1784747421.5503,12:10:21.550,16,false,0.617674,-0.342285,0.577271,0.409973,0.997574,-0.046387,-0.109865,-27.936036,-57.658119,24.383041
1784747421.5817,12:10:21.581,17,false,0.617874,-0.342041,0.577332,0.40979,1.000504,-0.053712,-0.1084,-27.998616,-57.679443,24.262583
1784747421.613,12:10:21.613,18,false,0.617897,-0.342102,0.577271,0.40979,1.011246,-0.046387,-0.098634,-27.995123,-57.63882,24.273801
1784747421.6443,12:10:21.644,19,false,0.617897,-0.342102,0.577271,0.40979,1.002945,-0.043946,-0.104005,-28.006933,-57.766752,24.194174
1784747421.6757,12:10:21.675,20,false,0.617617,-0.342346,0.577209,0.410095,0.994156,-0.053712,-0.102052,-28.286731,-57.777213,24.301956
1784747421.7068,12:10:21.706,21,false,0.61747,-0.341919,0.577576,0.410156,0.995132,-0.041993,-0.095216,-28.239472,-57.786629,24.32419
1784747421.738,12:10:21.738,22,false,0.617545,-0.341797,0.577698,0.409973,1.012222,-0.041993,-0.112795,-28.211893,-57.810056,24.374109
1784747421.7691,12:10:21.769,23,false,0.617306,-0.34198,0.577759,0.410095,1.004898,-0.050782,-0.098634,-28.261842,-57.756372,24.239589
1784747421.8002,12:10:21.800,24,false,0.617129,-0.342285,0.577637,0.410278,1.004898,-0.061036,-0.097658,-28.291841,-57.693102,24.238153
1784747421.8314,12:10:21.831,25,false,0.616909,-0.342346,0.577576,0.410645,1.012222,-0.049805,-0.1084,-28.273979,-57.636159,24.162091
1784747421.8625,12:10:21.862,26,false,0.616839,-0.34259,0.577332,0.410889,1.009781,-0.049805,-0.10547,-28.422396,-57.719495,24.108588
1784747421.8939,12:10:21.893,27,false,0.616805,-0.342651,0.577332,0.410889,1.006363,-0.045411,-0.08838,-28.481201,-57.794498,24.135206
1784747421.9252,12:10:21.925,28,false,0.616728,-0.342834,0.577393,0.410767,1.005875,-0.045899,-0.098634,-28.534126,-57.712462,24.159161
1784747421.9565,12:10:21.956,29,false,0.616443,-0.343201,0.577393,0.410889,1.012222,-0.050782,-0.096681,-28.581759,-57.788168,24.076045
1784747421.9879,12:10:21.987,30,false,0.616189,-0.343628,0.577148,0.411255,1.000992,-0.048829,-0.099123,-28.609675,-57.76658,23.911516
1784747422.0192,12:10:22.019,31,false,0.616254,-0.343628,0.577209,0.411072,0.990738,-0.05127,-0.091798,-28.574983,-57.612566,23.927933
1784747422.0506,12:10:22.050,0,false,0.616312,-0.343567,0.577271,0.41095,1.006363,-0.038575,-0.089357,-28.349361,-57.608538,23.927754
1784747422.0817,12:10:22.081,1,false,0.616388,-0.343445,0.577393,0.410767,1.009293,-0.043458,-0.087892,-28.460332,-57.470329,24.017317
1784747422.1128,12:10:22.112,2,false,0.61625,-0.343445,0.577454,0.410889,0.993179,-0.043458,-0.099611,-28.560205,-57.495479,24.023153
1784747422.144,12:10:22.144,3,false,0.616145,-0.343384,0.577515,0.411011,1.007828,-0.052247,-0.087404,-28.575322,-57.518114,24.028407
1784747422.1751,12:10:22.175,4,false,0.616276,-0.342957,0.577759,0.410828,0.988785,-0.058106,-0.086427,-28.678651,-57.448762,24.048088
1784747422.2062,12:10:22.206,5,false,0.616161,-0.343018,0.577759,0.41095,0.992691,-0.056641,-0.103029,-28.771646,-57.416253,24.170479
1784747422.2374,12:10:22.237,6,false,0.616287,-0.342834,0.57782,0.410828,0.993179,-0.050782,-0.1084,-28.571219,-57.446811,24.190907
1784747422.2687,12:10:22.268,7,false,0.616419,-0.342712,0.577881,0.410645,0.998062,-0.046876,-0.110842,-28.585235,-57.474313,24.388739
1784747422.3001,12:10:22.300,8,false,0.616484,-0.342712,0.577942,0.410461,1.001968,-0.053223,-0.092287,-28.552987,-57.573833,24.492018
1784747422.3314,12:10:22.331,9,false,0.616452,-0.342651,0.578186,0.410217,1.009293,-0.042969,-0.089357,-28.509011,-57.678356,24.435431
1784747422.3627,12:10:22.362,10,false,0.61651,-0.34259,0.578247,0.410095,1.003433,-0.052247,-0.085451,-28.514293,-57.667749,24.489179
1784747422.3941,12:10:22.394,11,false,0.616561,-0.342468,0.578308,0.410034,0.996109,-0.055665,-0.090333,-28.474186,-57.688111,24.388014
1784747422.4254,12:10:22.425,12,false,0.616452,-0.342651,0.578186,0.410217,1.000015,-0.052247,-0.096681,-28.572674,-57.841021,24.31192
1784747422.4566,12:10:22.456,13,false,0.616542,-0.342651,0.578003,0.410339,0.988296,-0.036622,-0.10547,-28.64636,-57.844056,24.30325
1784747422.4877,12:10:22.487,14,false,0.616581,-0.342407,0.577759,0.410828,1.004898,-0.041993,-0.090822,-28.637908,-57.74211,24.325355
1784747422.5188,12:10:22.518,15,false,0.616511,-0.342285,0.57782,0.41095,1.002457,-0.036622,-0.097658,-28.675162,-57.844759,24.255527
1784747422.55,12:10:22.550,16,false,0.616289,-0.342407,0.577637,0.411438,1.00734,-0.045411,-0.106935,-28.559153,-57.787604,24.162773
1784747422.5811,12:10:22.581,17,false,0.616313,-0.342407,0.577698,0.411316,1.00734,-0.045411,-0.099611,-28.499606,-57.810934,24.228834
1784747422.6125,12:10:22.612,18,false,0.616354,-0.342407,0.577698,0.411255,0.999527,-0.052735,-0.104982,-28.475921,-57.98147,24.288288
1784747422.6436,12:10:22.643,19,false,0.616238,-0.342468,0.577698,0.411377,0.99855,-0.061036,-0.107424,-28.439651,-57.940552,24.147397
1784747422.6749,12:10:22.674,20,false,0.616313,-0.342407,0.577698,0.411316,1.003433,-0.048829,-0.086915,-28.332239,-58.008402,24.185087
1784747422.7063,12:10:22.706,21,false,0.616456,-0.342163,0.57782,0.411133,1.000992,-0.039063,-0.100099,-28.205661,-58.03956,24.293778
1784747422.7376,12:10:22.737,22,false,0.616636,-0.342163,0.577759,0.41095,1.009781,-0.037598,-0.097169,-28.211371,-58.007787,24.227107
1784747422.7688,12:10:22.768,23,false,0.616742,-0.34259,0.577087,0.411377,1.006363,-0.047364,-0.097169,-28.276325,-57.919376,24.152149
1784747422.7999,12:10:22.799,24,false,0.616796,-0.342773,0.57666,0.411743,1.019547,-0.046387,-0.121096,-28.245061,-57.899621,24.099641
1784747422.831,12:10:22.831,25,false,0.616944,-0.342712,0.576538,0.411743,0.997574,-0.053223,-0.106935,-28.276738,-57.792119,24.082292
1784747422.8624,12:10:22.862,26,false,0.617059,-0.342651,0.576538,0.411621,1.011734,-0.039551,-0.099611,-28.260387,-57.800043,24.066677
1784747422.8935,12:10:22.893,27,false,0.616944,-0.342712,0.576538,0.411743,1.001968,-0.046876,-0.104494,-28.290532,-57.881945,23.977855
1784747422.9247,12:10:22.924,28,false,0.616634,-0.342712,0.576782,0.411865,1.002945,-0.044434,-0.106935,-28.242893,-57.880887,24.002592
1784747422.9558,12:10:22.955,29,false,0.616564,-0.342529,0.576965,0.411865,1.002945,-0.059571,-0.09131,-28.214972,-58.01452,23.905224
1784747422.9869,12:10:22.986,30,false,0.616556,-0.342529,0.576843,0.412048,1.00734,-0.055665,-0.101076,-28.279566,-57.925435,23.832547
1784747423.0183,12:10:23.018,31,false,0.616356,-0.342712,0.576599,0.412537,1.000015,-0.036622,-0.10547,-28.203117,-57.979844,23.782092
1784747423.0496,12:10:23.049,0,false,0.616407,-0.342651,0.576538,0.412598,1.009293,-0.060548,-0.109865,-28.253942,-57.98395,23.811451
1784747423.081,12:10:23.081,1,false,0.616313,-0.342834,0.576355,0.412842,1.014176,-0.057618,-0.114748,-28.31464,-57.897922,23.852828
1784747423.1123,12:10:23.112,2,false,0.616531,-0.342529,0.576477,0.412598,1.002945,-0.044923,-0.100587,-28.309452,-57.835451,23.770437
1784747423.1436,12:10:23.143,3,false,0.616423,-0.342651,0.576477,0.412659,1.000992,-0.054688,-0.102541,-28.230013,-57.928766,23.875731
1784747423.175,12:10:23.175,4,false,0.6162,-0.342407,0.576904,0.412598,0.999527,-0.051759,-0.100587,-28.038888,-57.923026,23.985449
1784747423.2061,12:10:23.206,5,false,0.616153,-0.342285,0.577026,0.412598,0.999039,-0.06006,-0.10547,-27.956598,-58.082352,24.024381
1784747423.2373,12:10:23.237,6,false,0.616165,-0.342102,0.577209,0.412476,0.996597,-0.051759,-0.095705,-27.867584,-57.956577,24.044465
1784747423.2684,12:10:23.268,7,false,0.616107,-0.342163,0.577148,0.412598,1.000504,-0.064942,-0.104982,-27.877194,-57.96301,24.002725
1784747423.2997,12:10:23.299,8,false,0.615997,-0.342346,0.577026,0.412781,1.004898,-0.048829,-0.102541,-27.945658,-58.028614,24.024975
1784747423.3309,12:10:23.330,9,false,0.616013,-0.342346,0.576965,0.412842,1.000015,-0.059083,-0.104005,-28.111953,-57.908213,23.835646
1784747423.362,12:10:23.362,10,false,0.615764,-0.342529,0.576904,0.413147,1.005875,-0.055177,-0.096193,-28.127034,-57.814805,23.710112
1784747423.3932,12:10:23.393,11,false,0.615705,-0.34259,0.576843,0.413269,1.020035,-0.052247,-0.111818,-28.095745,-57.745692,23.761623
1784747423.4245,12:10:23.424,12,false,0.615728,-0.342651,0.576782,0.413269,1.002945,-0.042969,-0.108888,-28.112446,-57.818075,23.71826
1784747423.4558,12:10:23.455,13,false,0.61571,-0.342712,0.576721,0.41333,0.999039,-0.05127,-0.101564,-28.127478,-57.838358,23.709141
1784747423.4872,12:10:23.487,14,false,0.615855,-0.342468,0.576843,0.413147,1.008316,-0.067384,-0.101564,-28.051283,-57.946336,23.760749
1784747423.5185,12:10:23.518,15,false,0.616004,-0.342346,0.576843,0.413025,1.000015,-0.047364,-0.1084,-27.9528,-57.908931,23.837104
1784747423.5499,12:10:23.549,16,false,0.61591,-0.342529,0.57666,0.413269,1.003433,-0.055177,-0.104005,-27.909027,-57.890221,23.89087
1784747423.581,12:10:23.581,17,false,0.616026,-0.342468,0.57666,0.413147,1.006363,-0.044434,-0.105959,-27.9444,-57.82852,23.909351
1784747423.6121,12:10:23.612,18,false,0.616101,-0.342407,0.57666,0.413086,0.997574,-0.058595,-0.103029,-28.036052,-57.877666,23.970846
1784747423.6433,12:10:23.643,19,false,0.616078,-0.342346,0.576721,0.413086,1.00441,-0.060548,-0.100587,-27.939092,-57.951805,23.996284
1784747423.6744,12:10:23.674,20,false,0.61606,-0.342407,0.57666,0.413147,1.013199,-0.056153,-0.109377,-28.076135,-57.868992,24.049085
1784747423.7055,12:10:23.705,21,false,0.616154,-0.342224,0.576843,0.412903,1.026871,-0.049317,-0.102052,-28.079844,-57.86923,24.036792
1784747423.7367,12:10:23.736,22,false,0.616229,-0.342163,0.576843,0.412842,1.000015,-0.054688,-0.107912,-28.172905,-57.854489,23.995819
1784747423.7678,12:10:23.767,23,false,0.616339,-0.34198,0.576965,0.412659,1.012222,-0.049805,-0.105959,-28.092167,-57.7515,24.01876
1784747423.7992,12:10:23.799,24,false,0.616397,-0.341919,0.577026,0.412537,1.001968,-0.057618,-0.104005,-28.243811,-57.808348,24.039406
1784747423.8305,12:10:23.830,25,false,0.61628,-0.342041,0.576904,0.412781,1.001968,-0.055665,-0.10547,-28.200845,-57.81465,23.983219
1784747423.8618,12:10:23.861,26,false,0.616321,-0.342041,0.576904,0.41272,1.010758,-0.062501,-0.096193,-28.251898,-57.730599,23.992465
1784747423.893,12:10:23.893,27,false,0.616447,-0.341858,0.576965,0.412598,1.003922,-0.062989,-0.103517,-28.23803,-57.744676,24.09051
1784747423.9243,12:10:23.924,28,false,0.616613,-0.341736,0.577209,0.412109,1.009293,-0.052735,-0.096193,-28.34518,-57.802206,24.133889
1784747423.9555,12:10:23.955,29,false,0.616365,-0.341919,0.577454,0.411987,1.000015,-0.06006,-0.100099,-28.172446,-57.779215,24.143023
1784747423.9868,12:10:23.986,30,false,0.61604,-0.342224,0.577576,0.412048,0.99855,-0.05713,-0.091798,-28.301108,-57.773476,24.166196
1784747424.0179,12:10:24.017,31,false,0.615925,-0.342224,0.577698,0.412048,0.996109,-0.052247,-0.08838,-28.20755,-57.678588,24.067422
1784747424.0491,12:10:24.049,0,false,0.615875,-0.342285,0.577759,0.411987,1.005386,-0.057618,-0.089845,-28.242979,-57.772635,24.053295
1784747424.0802,12:10:24.080,1,false,0.616145,-0.342224,0.577942,0.411377,1.006851,-0.05127,-0.103029,-28.289819,-57.767554,24.130303
1784747424.1114,12:10:24.111,2,false,0.616216,-0.342346,0.577881,0.411255,1.009293,-0.046876,-0.099611,-28.272159,-57.777936,24.065026
1784747424.1427,12:10:24.142,3,false,0.616249,-0.342712,0.577759,0.411072,1.004898,-0.041016,-0.098146,-28.166542,-57.877002,24.245538
1784747424.174,12:10:24.174,4,false,0.616498,-0.342468,0.577942,0.410645,0.995621,-0.049317,-0.087892,-28.235979,-57.846531,24.348183
1784747424.2054,12:10:24.205,5,false,0.616655,-0.342285,0.578186,0.410217,1.009781,-0.050782,-0.101564,-28.298473,-57.819106,24.261118
1784747424.2367,12:10:24.236,6,false,0.616509,-0.342651,0.578125,0.410217,0.999039,-0.049317,-0.089357,-28.279948,-57.749563,24.257528
1784747424.268,12:10:24.268,7,false,0.616293,-0.342834,0.578247,0.410217,1.004898,-0.044923,-0.095705,-28.263275,-57.986051,24.254298
1784747424.2991,12:10:24.299,8,false,0.616167,-0.343018,0.578186,0.410339,0.994156,-0.057618,-0.086427,-28.308085,-57.854952,24.191575
1784747424.3302,12:10:24.330,9,false,0.616075,-0.34314,0.578125,0.410461,1.016129,-0.058595,-0.096681,-28.228784,-57.916409,24.105217
1784747424.3614,12:10:24.361,10,false,0.616012,-0.343018,0.578308,0.4104,1.007828,-0.046387,-0.088869,-28.18732,-57.807228,24.147125
1784747424.3925,12:10:24.392,11,false,0.615978,-0.343079,0.578308,0.4104,1.007828,-0.048341,-0.084474,-28.239725,-57.873457,24.244658
1784747424.4237,12:10:24.423,12,false,0.616076,-0.343018,0.578369,0.410217,0.998062,-0.052247,-0.087404,-28.227075,-57.873248,24.422161
1784747424.4548,12:10:24.454,13,false,0.61626,-0.342773,0.578491,0.409973,1.002945,-0.058106,-0.103029,-28.275505,-57.888014,24.417421
1784747424.4859,12:10:24.485,14,false,0.616301,-0.342773,0.578491,0.409912,1.008316,-0.049317,-0.099611,-28.274231,-57.871395,24.413155
1784747424.5171,12:10:24.517,15,false,0.616417,-0.34259,0.578735,0.409546,0.993668,-0.058595,-0.09131,-28.243176,-57.781669,24.274731
1784747424.5484,12:10:24.548,16,false,0.616234,-0.342773,0.578735,0.409668,1.011734,-0.045899,-0.094728,-28.275042,-57.940177,24.165103
1784747424.5798,12:10:24.579,17,false,0.616067,-0.343018,0.578552,0.409973,1.000504,-0.051759,-0.102541,-28.393445,-57.918342,24.1113
1784747424.6111,12:10:24.611,18,false,0.615696,-0.343262,0.578369,0.410583,1.011734,-0.053223,-0.095705,-28.350468,-57.898691,24.137646
1784747424.6424,12:10:24.642,19,false,0.615598,-0.343262,0.57843,0.410645,0.993668,-0.059083,-0.106447,-28.237021,-57.836143,24.13145
1784747424.6738,12:10:24.673,20,false,0.61554,-0.343323,0.578369,0.410767,1.004898,-0.059571,-0.092287,-28.344272,-57.884527,24.170735
1784747424.7049,12:10:24.704,21,false,0.615649,-0.34314,0.578491,0.410583,0.999039,-0.0542,-0.100587,-28.321167,-57.928072,24.280861
1784747424.7361,12:10:24.736,22,false,0.615775,-0.343018,0.57843,0.410583,1.014176,-0.053712,-0.101564,-28.434957,-58.012125,24.215482
1784747424.7672,12:10:24.767,23,false,0.615805,-0.34314,0.578369,0.410522,1.005386,-0.047852,-0.088869,-28.298106,-58.072818,24.111779
1784747424.7983,12:10:24.798,24,false,0.615846,-0.34314,0.578369,0.410461,1.00148,-0.039551,-0.095705,-28.354387,-57.977904,24.153031
1784747424.8295,12:10:24.829,25,false,0.616008,-0.34314,0.578369,0.410217,1.006851,-0.036133,-0.099123,-28.375132,-58.012112,24.16025
1784747424.8606,12:10:24.860,26,false,0.616002,-0.343079,0.578369,0.410278,1.002457,-0.042481,-0.089357,-28.393803,-58.042899,24.032163
1784747424.8918,12:10:24.891,27,false,0.615841,-0.343384,0.578186,0.410522,1.003433,-0.056641,-0.086427,-28.410606,-57.995838,24.021561
1784747424.9231,12:10:24.923,28,false,0.615823,-0.343445,0.578125,0.410583,1.00441,-0.044923,-0.100099,-28.425729,-58.028252,23.967158
1784747424.9544,12:10:24.954,29,false,0.615928,-0.343506,0.578064,0.410461,1.016617,-0.030762,-0.100099,-28.364571,-57.937794,24.067734
1784747424.9858,12:10:24.985,30,false,0.615882,-0.34375,0.577881,0.410583,1.004898,-0.041993,-0.098146,-28.399251,-57.811521,24.023667
1784747425.0171,12:10:25.017,31,false,0.615866,-0.34375,0.577942,0.410522,0.991226,-0.03711,-0.090822,-28.310833,-57.907228,24.133546
1784747425.0485,12:10:25.048,0,false,0.615706,-0.344299,0.577698,0.410645,1.008804,-0.048341,-0.102541,-28.291072,-57.948504,24.067945
1784747425.0798,12:10:25.079,1,false,0.615398,-0.344543,0.577881,0.410645,1.005386,-0.042481,-0.097658,-28.273287,-57.791252,24.158442
1784747425.1109,12:10:25.110,2,false,0.615186,-0.344482,0.578186,0.410583,1.000504,-0.050782,-0.099611,-28.33205,-57.724494,24.135212
1784747425.1421,12:10:25.142,3,false,0.61514,-0.34436,0.578308,0.410583,0.995132,-0.048829,-0.094728,-28.295213,-57.724227,24.159167
