Timestamp,Local time,Counter,Interpolated,Accelerometer X,Accelerometer Y,Accelerometer Z,Magnetometer X,Magnetometer Y,Magnetometer Z,Quaternion 0,Quaternion 1,Quaternion 2,Quaternion 3
1784315531.205,12:12:11.205,5,false,0.495825,-0.478455,0.345825,0.636902,0.973159,0.031739,-0.310063,-22.672218,-48.059114,13.728662
1784315531.2362,12:12:11.236,6,false,0.498465,-0.4776,0.348694,0.633911,0.983902,0.056153,-0.299321,-22.67798,-47.589816,13.432473
1784315531.2675,12:12:11.267,7,false,0.503821,-0.476013,0.353516,0.628174,0.957534,0.052735,-0.291997,-22.458858,-47.062772,13.210763
1784315531.2987,12:12:11.298,8,false,0.505919,-0.474976,0.355591,0.626099,0.944839,0.030762,-0.28809,-22.216787,-46.73797,13.041133
1784315531.3298,12:12:11.329,9,false,0.515002,-0.469482,0.36145,0.619446,0.941421,0.026368,-0.285649,-22.357815,-46.206387,12.843604
1784315531.3611,12:12:11.361,10,false,0.520982,-0.46521,0.364441,0.615906,0.948745,0.019043,-0.304692,-22.125848,-45.772824,12.501335
1784315531.3923,12:12:11.392,11,false,0.527009,-0.460022,0.367493,0.612854,0.956558,0.010254,-0.323247,-21.917078,-45.27794,12.327879
1784315531.4234,12:12:11.423,12,false,0.536347,-0.45282,0.371521,0.607666,0.951675,0.050294,-0.326665,-21.774047,-45.056853,12.111952
1784315531.4548,12:12:11.454,13,false,0.542396,-0.448303,0.373291,0.604553,0.94435,0.019532,-0.338872,-21.540641,-44.768151,11.962479
1784315531.4861,12:12:11.486,14,false,0.551596,-0.440247,0.376282,0.600281,0.951186,0.01416,-0.366217,-21.375438,-44.508319,11.723277
1784315531.5174,12:12:11.517,15,false,0.554533,-0.437256,0.377686,0.598877,0.9673,-0.001465,-0.369635,-21.301525,-44.124932,11.582765
1784315531.5488,12:12:11.548,16,false,0.56275,-0.42804,0.382996,0.594482,0.946304,-0.014649,-0.389166,-21.025648,-44.019145,11.36658
1784315531.5801,12:12:11.580,17,false,0.568692,-0.421082,0.387756,0.590698,0.956558,-0.018555,-0.394537,-20.911945,-43.789352,11.112199
1784315531.6115,12:12:11.611,18,false,0.578383,-0.410583,0.395508,0.583496,0.952651,-0.016602,-0.400885,-20.719888,-43.791893,10.943071
1784315531.6428,12:12:11.642,19,false,0.584939,-0.404358,0.400757,0.577698,0.957046,-0.001465,-0.389166,-20.576945,-43.64464,10.745994
1784315531.6739,12:12:11.673,20,false,0.591371,-0.398071,0.406067,0.571777,0.946304,-0.021485,-0.388678,-20.567926,-43.661652,10.568625
1784315531.7051,12:12:11.705,21,false,0.600722,-0.388062,0.414063,0.56311,0.953628,0.024414,-0.394049,-20.485041,-43.676962,10.453855
1784315531.7362,12:12:11.736,22,false,0.606592,-0.382324,0.419067,0.557007,0.960464,0.012696,-0.394537,-20.455305,-43.855234,10.335608
1784315531.7673,12:12:11.767,23,false,0.611836,-0.377258,0.423279,0.551514,0.925307,0.00293,-0.38233,-20.383682,-43.985771,10.139462
1784315531.7985,12:12:11.798,24,false,0.619529,-0.368896,0.429443,0.543762,0.937026,0.0,-0.393072,-20.244452,-44.148115,9.918069
1784315531.8298,12:12:11.829,25,false,0.624036,-0.364624,0.432861,0.538757,0.972671,0.028809,-0.378424,-19.98456,-44.204502,9.778631
1784315531.8612,12:12:11.861,26,false,0.629459,-0.35968,0.4375,0.531982,0.958999,-0.00293,-0.389166,-19.825426,-44.404789,9.727906
1784315531.8925,12:12:11.892,27,false,0.631162,-0.35791,0.439087,0.529846,0.946304,-0.026368,-0.392584,-19.712114,-44.585047,9.607485
1784315531.9238,12:12:11.923,28,false,0.636533,-0.351013,0.445129,0.522949,0.939956,-0.06836,-0.384283,-19.83444,-44.747279,9.499105
1784315531.9551,12:12:11.955,29,false,0.640706,-0.344788,0.450256,0.517578,0.941909,-0.07715,-0.389166,-19.645457,-44.818519,9.356702
1784315531.9862,12:12:11.986,30,false,0.649448,-0.331482,0.462585,0.504333,0.997574,-0.187015,-0.432624,-19.729588,-44.972358,9.318262
1784315532.0174,12:12:12.017,31,false,0.657234,-0.320496,0.47522,0.48938,0.997574,-0.230961,-0.440436,-19.805305,-45.335121,9.358436
1784315532.0485,12:12:12.048,0,false,0.665992,-0.305969,0.490906,0.471008,0.962905,-0.192386,-0.426276,-19.873451,-45.691515,9.439453
1784315532.0796,12:12:12.079,1,false,0.68106,-0.279968,0.51709,0.43634,0.941421,-0.061036,-0.375982,-19.96469,-46.266485,9.617046
1784315532.1108,12:12:12.110,2,false,0.690818,-0.263611,0.533386,0.410828,0.95021,0.005859,-0.341314,-20.181389,-46.769004,9.89651
1784315532.1419,12:12:12.141,3,false,0.703962,-0.240845,0.554932,0.372131,0.951675,0.077638,-0.289067,-20.331557,-47.400717,10.297567
1784315532.173,12:12:12.173,4,false,0.710436,-0.228638,0.566223,0.349854,0.966812,0.089845,-0.238285,-20.601293,-48.133752,10.852917
1784315532.2042,12:12:12.204,5,false,0.715103,-0.21936,0.575073,0.33136,0.965347,0.101076,-0.217777,-20.709471,-48.778529,11.472363
1784315532.2355,12:12:12.235,6,false,0.719866,-0.210876,0.583496,0.311218,0.95314,0.083986,-0.183108,-21.001231,-49.538274,12.179403
1784315532.2669,12:12:12.266,7,false,0.721947,-0.207703,0.586487,0.302795,0.952163,0.025879,-0.198734,-21.353538,-50.251952,12.755924
1784315532.2982,12:12:12.298,8,false,0.723708,-0.205627,0.588257,0.296509,0.997574,-0.007324,-0.204105,-21.565937,-50.894263,13.37947
1784315532.3295,12:12:12.329,9,false,0.725511,-0.20343,0.589783,0.290527,1.002457,-0.000488,-0.21973,-21.906635,-51.427481,13.880845
1784315532.3609,12:12:12.360,10,false,0.724859,-0.204529,0.589844,0.29126,0.98146,-0.035157,-0.233402,-22.138494,-51.832608,14.332083
1784315532.3922,12:12:12.392,11,false,0.721507,-0.211182,0.588623,0.297241,0.98732,-0.055665,-0.215824,-22.421936,-52.316853,14.947551
1784315532.4234,12:12:12.423,12,false,0.721686,-0.211182,0.589111,0.295837,0.992203,-0.032715,-0.21387,-22.706942,-52.677905,15.426703
1784315532.4545,12:12:12.454,13,false,0.718004,-0.219055,0.588013,0.301208,0.990738,-0.03418,-0.204593,-23.008308,-53.107528,15.723355
1784315532.4856,12:12:12.485,14,false,0.715748,-0.223877,0.58728,0.304443,0.972671,-0.02002,-0.19678,-23.219723,-53.434373,16.005296
1784315532.517,12:12:12.517,15,false,0.710944,-0.234497,0.584473,0.312988,0.993668,-0.000977,-0.188479,-23.469811,-53.608903,16.244089
1784315532.5481,12:12:12.548,16,false,0.707829,-0.241333,0.582031,0.319336,0.979507,-0.02295,-0.198734,-23.694891,-53.915519,16.743126
1784315532.5793,12:12:12.579,17,false,0.705255,-0.24762,0.579163,0.325378,0.988785,-0.033692,-0.189456,-23.897462,-54.116704,17.147397
1784315532.6106,12:12:12.610,18,false,0.701539,-0.25708,0.574707,0.333862,1.012711,-0.011231,-0.193851,-23.990054,-54.237955,17.361703
1784315532.6419,12:12:12.641,19,false,0.698688,-0.263428,0.572083,0.339355,1.005386,-0.020996,-0.20264,-24.08834,-54.362034,17.419993
1784315532.6733,12:12:12.673,20,false,0.695894,-0.269287,0.56958,0.344666,0.992691,-0.015625,-0.199222,-24.251567,-54.443799,17.696763
1784315532.7046,12:12:12.704,21,false,0.692421,-0.277039,0.566284,0.350891,0.989761,-0.009766,-0.194827,-24.248932,-54.517386,17.900994
1784315532.736,12:12:12.736,22,false,0.690176,-0.282043,0.56427,0.354553,1.003433,-0.000977,-0.202152,-24.246561,-54.613523,18.129663
1784315532.7673,12:12:12.767,23,false,0.686482,-0.289185,0.561951,0.359619,1.000504,-0.002441,-0.189944,-24.334151,-54.460784,18.245742
1784315532.7986,12:12:12.798,24,false,0.684135,-0.293701,0.560547,0.36261,0.977554,-0.010254,-0.178714,-24.502704,-54.487812,18.365167
1784315532.8298,12:12:12.829,25,false,0.681947,-0.298035,0.559021,0.36554,0.98732,0.00293,-0.180179,-24.699264,-54.482229,18.47265
1784315532.8611,12:12:12.861,26,false,0.678954,-0.303284,0.556946,0.369934,0.996109,0.006348,-0.175784,-24.666813,-54.522066,18.689015
1784315532.8922,12:12:12.892,27,false,0.677145,-0.305969,0.555725,0.372864,0.995621,0.007813,-0.176272,-24.622654,-54.662596,18.794021
1784315532.9234,12:12:12.923,28,false,0.674355,-0.309998,0.553833,0.37738,1.002457,0.008301,-0.181155,-24.53805,-54.639535,18.813756
1784315532.9547,12:12:12.954,29,false,0.673525,-0.311218,0.553284,0.378662,0.993668,0.020996,-0.191409,-24.760982,-54.648687,18.906288
1784315532.9861,12:12:12.986,30,false,0.671169,-0.314331,0.551697,0.382568,0.989761,0.000488,-0.195315,-24.797129,-54.641971,18.974612
1784315533.0174,12:12:13.017,31,false,0.669925,-0.315979,0.550781,0.384705,0.99855,0.00293,-0.187015,-24.814708,-54.620972,19.02115
1784315533.0487,12:12:13.048,0,false,0.66836,-0.317993,0.549683,0.387329,1.000504,0.010254,-0.17969,-24.845483,-54.617027,19.182666
1784315533.0801,12:12:13.080,1,false,0.66728,-0.319214,0.54895,0.389221,1.000992,-0.000488,-0.193362,-24.962903,-54.62843,19.163537
1784315533.1112,12:12:13.111,2,false,0.666321,-0.320313,0.548218,0.390991,0.996109,0.016602,-0.193851,-24.963904,-54.563924,19.325767
1784315533.1426,12:12:13.142,3,false,0.664915,-0.322266,0.547119,0.393311,0.989761,0.01416,-0.185061,-25.039574,-54.55073,19.367097
1784315533.1737,12:12:13.173,4,false,0.663771,-0.323792,0.546509,0.394836,0.991226,0.006348,-0.186526,-25.047862,-54.553809,19.419249
1784315533.2048,12:12:13.204,5,false,0.662576,-0.325195,0.546021,0.396362,0.994644,0.015625,-0.187503,-25.174952,-54.481811,19.511046
1784315533.236,12:12:13.236,6,false,0.660575,-0.327942,0.5448,0.399109,0.998062,0.001953,-0.187503,-25.094933,-54.566551,19.414218
1784315533.2671,12:12:13.267,7,false,0.659342,-0.329651,0.544006,0.400818,1.014664,0.017578,-0.185061,-25.187408,-54.702633,19.491565
1784315533.2983,12:12:13.298,8,false,0.657371,-0.331543,0.54303,0.403809,0.99855,0.008301,-0.192386,-25.240728,-54.630706,19.441546
1784315533.3294,12:12:13.329,9,false,0.656731,-0.33197,0.542725,0.404907,0.993668,0.00293,-0.186526,-25.288716,-54.610834,19.471299
1784315533.3607,12:12:13.360,10,false,0.654713,-0.333313,0.54187,0.408203,0.995132,-0.013672,-0.186526,-25.27209,-54.71258,19.51303
1784315533.3921,12:12:13.392,11,false,0.653472,-0.334167,0.541321,0.410217,0.995132,-0.009277,-0.187503,-25.092634,-54.789197,19.640311
1784315533.4234,12:12:13.423,12,false,0.651643,-0.334961,0.540527,0.413513,0.990249,-0.01709,-0.200198,-25.170385,-54.69366,19.66514
1784315533.4548,12:12:13.454,13,false,0.650665,-0.334839,0.540283,0.415466,0.977554,-0.044923,-0.195804,-25.330084,-54.592723,19.597764
1784315533.4861,12:12:13.486,14,false,0.649859,-0.334717,0.539917,0.417297,0.981949,-0.024414,-0.204105,-25.369137,-54.531788,19.611895
1784315533.5174,12:12:13.517,15,false,0.648167,-0.335022,0.539917,0.419678,0.990738,-0.02295,-0.184573,-25.419237,-54.686299,19.639566
1784315533.5486,12:12:13.548,16,false,0.64682,-0.335632,0.539917,0.421265,0.975113,-0.037598,-0.192874,-25.464328,-54.780498,19.604655
1784315533.5797,12:12:13.579,17,false,0.645411,-0.336365,0.539429,0.423462,0.983902,-0.041505,-0.193362,-25.355372,-54.865278,19.528374
1784315533.6108,12:12:13.610,18,false,0.644775,-0.336731,0.539001,0.424683,0.990249,-0.033204,-0.191897,-25.317126,-54.926625,19.594305
1784315533.642,12:12:13.642,19,false,0.644154,-0.337097,0.538696,0.42572,0.996109,-0.041505,-0.200687,-25.34252,-54.966884,19.593828
1784315533.6731,12:12:13.673,20,false,0.643362,-0.337341,0.53833,0.427185,0.995132,-0.04004,-0.204105,-25.290606,-55.003117,19.623306
1784315533.7045,12:12:13.704,21,false,0.6431,-0.337341,0.537964,0.42804,0.98439,-0.038575,-0.19971,-25.139206,-54.975911,19.560113
1784315533.7358,12:12:13.735,22,false,0.643083,-0.33728,0.537292,0.428955,0.997086,-0.033692,-0.210941,-25.107623,-55.115918,19.458378
1784315533.7671,12:12:13.767,23,false,0.643251,-0.337463,0.535706,0.430542,0.98732,-0.037598,-0.212894,-24.899752,-55.152202,19.411678
1784315533.7985,12:12:13.798,24,false,0.643316,-0.337524,0.534851,0.431458,1.00441,-0.034668,-0.210941,-24.787438,-55.304487,19.41451
1784315533.8298,12:12:13.829,25,false,0.643597,-0.337341,0.533691,0.432617,0.997086,-0.03711,-0.229496,-24.835893,-55.396683,19.26752
1784315533.861,12:12:13.861,26,false,0.643654,-0.33728,0.533264,0.433105,0.993668,-0.041016,-0.229007,-24.78978,-55.389936,19.224952
1784315533.8921,12:12:13.892,27,false,0.644019,-0.336731,0.532227,0.434265,0.995621,-0.038087,-0.237797,-24.79314,-55.279187,19.111871
1784315533.9232,12:12:13.923,28,false,0.644582,-0.336304,0.531616,0.434509,0.991226,-0.042969,-0.243168,-24.766256,-55.269236,19.099822
1784315533.9544,12:12:13.954,29,false,0.645559,-0.335999,0.530823,0.434265,1.000015,-0.042969,-0.246586,-24.607476,-55.170557,19.074024
1784315533.9855,12:12:13.985,30,false,0.64636,-0.335571,0.530518,0.433777,0.987808,-0.03125,-0.237797,-24.56925,-55.201376,19.065759
1784315534.0167,12:12:14.016,31,false,0.647389,-0.334839,0.530273,0.433105,0.984878,-0.04004,-0.234867,-24.415217,-55.199206,19.177952
1784315534.0478,12:12:14.047,0,false,0.649174,-0.333008,0.53009,0.432068,0.980972,-0.041016,-0.237797,-24.396218,-55.272022,19.129387
1784315534.0789,12:12:14.078,1,false,0.65055,-0.331543,0.529968,0.431274,0.983413,-0.038575,-0.251957,-24.483795,-55.188018,19.055771
1784315534.1103,12:12:14.110,2,false,0.652451,-0.329895,0.529602,0.430115,0.969741,-0.035645,-0.251957,-24.562615,-55.217092,19.019424
1784315534.1416,12:12:14.141,3,false,0.655125,-0.327454,0.529053,0.428589,0.983902,-0.020996,-0.25098,-24.513922,-55.258211,18.822219
1784315534.1729,12:12:14.172,4,false,0.656591,-0.325867,0.528809,0.427856,0.995132,-0.03418,-0.254398,-24.410283,-55.280265,18.958766
1784315534.2043,12:12:14.204,5,false,0.658683,-0.322876,0.529175,0.426453,0.984878,-0.03125,-0.255863,-24.391777,-55.270206,18.902212
1784315534.2356,12:12:14.235,6,false,0.659816,-0.320923,0.529541,0.42572,0.972671,-0.024414,-0.25977,-24.405029,-55.36583,18.806452
1784315534.2668,12:12:14.266,7,false,0.661048,-0.318848,0.53009,0.424683,0.988785,-0.025391,-0.261234,-24.387048,-55.272445,18.765129
1784315534.2979,12:12:14.297,8,false,0.661749,-0.316589,0.531738,0.423218,1.002945,-0.030274,-0.246586,-24.355912,-55.233261,18.668123
1784315534.329,12:12:14.329,9,false,0.661405,-0.315552,0.533508,0.422302,0.983413,-0.029786,-0.242679,-24.342843,-55.407348,18.670541
1784315534.3602,12:12:14.360,10,false,0.660656,-0.314026,0.536438,0.420898,0.971206,-0.028809,-0.221683,-24.331081,-55.384581,18.882071
1784315534.3913,12:12:14.391,11,false,0.660617,-0.313232,0.537476,0.420227,0.973648,-0.047364,-0.222171,-24.45508,-55.408952,18.982725
1784315534.4225,12:12:14.422,12,false,0.660298,-0.311462,0.540222,0.418518,0.974624,-0.026856,-0.207034,-24.596587,-55.655193,19.043406
1784315534.4536,12:12:14.453,13,false,0.660146,-0.310608,0.541748,0.417419,0.978042,-0.031739,-0.208011,-24.55945,-55.712318,19.083064
1784315534.4849,12:12:14.484,14,false,0.659833,-0.308777,0.54425,0.416016,0.991226,-0.030762,-0.207034,-24.540981,-55.973085,19.28325
1784315534.5163,12:12:14.516,15,false,0.659725,-0.306946,0.546021,0.415222,0.990738,-0.039551,-0.215335,-24.584175,-56.043282,19.47837
1784315534.5476,12:12:14.547,16,false,0.659646,-0.305054,0.547729,0.41449,1.00148,-0.04004,-0.204105,-24.697818,-56.211137,19.653979
1784315534.579,12:12:14.579,17,false,0.659652,-0.302429,0.550049,0.41333,0.985855,-0.067872,-0.197757,-24.755235,-56.212667,19.812026
1784315534.6102,12:12:14.610,18,false,0.659837,-0.300659,0.551392,0.412537,0.984878,-0.057618,-0.205081,-24.88168,-56.46826,19.954269
1784315534.6413,12:12:14.641,19,false,0.660143,-0.299255,0.552063,0.41217,0.980972,-0.05127,-0.215335,-25.025388,-56.608571,19.947703
1784315534.6727,12:12:14.672,20,false,0.661176,-0.29718,0.552856,0.41095,1.001968,-0.042969,-0.22266,-25.020141,-56.824574,20.151147
1784315534.7038,12:12:14.703,21,false,0.66212,-0.296082,0.553223,0.409729,1.000015,-0.045411,-0.215335,-25.194865,-56.914299,20.364155
1784315534.7349,12:12:14.734,22,false,0.663477,-0.294861,0.553467,0.408081,1.00148,-0.03125,-0.212894,-25.053039,-56.995052,20.406324
1784315534.7661,12:12:14.766,23,false,0.663814,-0.294495,0.553528,0.407715,0.994644,-0.048829,-0.215335,-25.104842,-57.082683,20.533998
1784315534.7972,12:12:14.797,24,false,0.664822,-0.292847,0.553955,0.406677,1.002945,-0.050782,-0.205081,-25.046788,-57.101736,20.529275
1784315534.8284,12:12:14.828,25,false,0.665097,-0.292236,0.55426,0.40625,0.98146,-0.049805,-0.211429,-25.054354,-57.178699,20.465208
1784315534.8595,12:12:14.859,26,false,0.665171,-0.291687,0.555176,0.405273,0.990249,-0.047364,-0.219242,-25.180795,-57.247966,20.557087
1784315534.8908,12:12:14.890,27,false,0.664839,-0.291504,0.556335,0.404358,0.997574,-0.052247,-0.213382,-25.234776,-57.400029,20.654731
1784315534.9222,12:12:14.922,28,false,0.663856,-0.291565,0.558228,0.40332,1.000504,-0.063966,-0.203616,-25.193636,-57.67147,20.877196
1784315534.9535,12:12:14.953,29,false,0.661538,-0.29187,0.561646,0.402161,0.974136,-0.041993,-0.17969,-25.246333,-57.676506,20.942829
1784315534.9849,12:12:14.984,30,false,0.65973,-0.292786,0.563599,0.401733,0.995621,-0.07129,-0.184085,-25.323668,-57.710946,21.106576
1784315535.016,12:12:15.016,31,false,0.656408,-0.295105,0.56665,0.401184,1.00734,-0.046876,-0.160159,-25.288593,-57.861573,21.224041
1784315535.0471,12:12:15.047,0,false,0.653664,-0.296936,0.568604,0.40155,0.993179,-0.070802,-0.164065,-25.286933,-57.922367,21.329759
1784315535.0783,12:12:15.078,1,false,0.651356,-0.298279,0.570374,0.401794,0.980484,-0.080079,-0.141115,-25.390116,-57.992037,21.484721
1784315535.1094,12:12:15.109,2,false,0.648473,-0.299622,0.572693,0.402161,0.991226,-0.070314,-0.152346,-25.36335,-58.054739,21.624187
1784315535.1405,12:12:15.140,3,false,0.646884,-0.30011,0.573975,0.402527,1.001968,-0.072755,-0.142092,-25.384122,-58.141078,21.779614
1784315535.1717,12:12:15.171,4,false,0.645441,-0.300354,0.575256,0.402832,0.989273,-0.075685,-0.151369,-25.298139,-58.278599,21.934452
1784315535.2028,12:12:15.202,5,false,0.643594,-0.300537,0.576843,0.403381,1.001968,-0.078126,-0.140139,-25.280571,-58.417322,22.163529
1784315535.2342,12:12:15.234,6,false,0.642776,-0.300354,0.577637,0.403687,0.991714,-0.093751,-0.143557,-25.414297,-58.542173,22.399606
1784315535.2655,12:12:15.265,7,false,0.642059,-0.300232,0.578369,0.40387,1.007828,-0.076661,-0.146975,-25.325298,-58.639584,22.597121
1784315535.2968,12:12:15.296,8,false,0.641937,-0.300293,0.57843,0.403931,0.993179,-0.087892,-0.151858,-25.454552,-58.712301,22.730024
1784315535.3282,12:12:15.328,9,false,0.641637,-0.300171,0.578613,0.404236,1.003433,-0.061524,-0.145022,-25.466203,-58.732884,22.879544
1784315535.3595,12:12:15.359,10,false,0.641582,-0.300171,0.578674,0.404236,1.00441,-0.052735,-0.134279,-25.506598,-58.796271,23.044019
1784315535.3909,12:12:15.390,11,false,0.640953,-0.300537,0.578796,0.404785,0.997086,-0.078614,-0.14844,-25.542952,-59.002857,23.192047
1784315535.422,12:12:15.422,12,false,0.640377,-0.30072,0.579041,0.405212,0.992691,-0.076661,-0.136233,-25.441087,-58.979431,23.35518
1784315535.4531,12:12:15.453,13,false,0.639706,-0.300842,0.579163,0.406006,0.995132,-0.085451,-0.146975,-25.469039,-59.003209,23.427231
1784315535.4843,12:12:15.484,14,false,0.639121,-0.301025,0.579285,0.406616,1.002945,-0.082033,-0.133303,-25.658688,-59.21901,23.581799
1784315535.5154,12:12:15.515,15,false,0.638611,-0.301392,0.579529,0.406799,1.002945,-0.078126,-0.147951,-25.739649,-59.21883,23.631188
1784315535.5466,12:12:15.546,16,false,0.637892,-0.30188,0.579895,0.407043,1.003433,-0.083497,-0.134768,-25.737745,-59.323345,23.780314
1784315535.5777,12:12:15.577,17,false,0.636577,-0.302246,0.580505,0.407959,0.979995,-0.083497,-0.132815,-25.721078,-59.327686,23.974344
1784315535.6088,12:12:15.608,18,false,0.635969,-0.302246,0.580872,0.408386,0.979995,-0.083497,-0.124514,-25.676169,-59.421315,24.059247
1784315535.6402,12:12:15.640,19,false,0.635215,-0.302124,0.581116,0.409302,1.002945,-0.086915,-0.127443,-25.665659,-59.520536,24.255291
1784315535.6715,12:12:15.671,20,false,0.634453,-0.302124,0.581604,0.40979,1.014176,-0.086915,-0.127932,-25.760877,-59.579926,24.282192
1784315535.7028,12:12:15.702,21,false,0.63352,-0.302124,0.582275,0.410278,0.990249,-0.086427,-0.119631,-25.622265,-59.588516,24.381172
1784315535.7342,12:12:15.734,22,false,0.632254,-0.302002,0.583069,0.411194,0.98732,-0.080079,-0.12549,-25.572284,-59.641109,24.440346
1784315535.7655,12:12:15.765,23,false,0.631723,-0.30188,0.583191,0.411926,0.990249,-0.088869,-0.133303,-25.572163,-59.793119,24.568372
1784315535.7967,12:12:15.796,24,false,0.631535,-0.301758,0.583069,0.412476,1.003433,-0.079591,-0.125002,-25.616915,-59.989744,24.62378
1784315535.8278,12:12:15.827,25,false,0.631603,-0.301636,0.582886,0.41272,1.005875,-0.089845,-0.127932,-25.537561,-60.106891,24.658694
1784315535.8589,12:12:15.858,26,false,0.631975,-0.301819,0.582214,0.412964,0.993668,-0.083986,-0.124025,-25.436235,-60.302046,24.675162
1784315535.8901,12:12:15.890,27,false,0.633061,-0.302612,0.581055,0.412354,0.99855,-0.079591,-0.126955,-25.404857,-60.387962,24.839522
1784315535.9212,12:12:15.921,28,false,0.635984,-0.304626,0.578186,0.4104,1.003433,-0.07422,-0.130861,-25.39157,-60.405472,24.972492
1784315535.9524,12:12:15.952,29,false,0.638539,-0.306213,0.575867,0.408508,1.021012,-0.063478,-0.147463,-25.484289,-60.376369,24.927673
1784315535.9835,12:12:15.983,30,false,0.641372,-0.308167,0.573181,0.406372,1.019547,-0.05127,-0.152834,-25.597644,-60.230546,24.932197
1784315536.0148,12:12:16.014,31,false,0.645771,-0.311768,0.568604,0.403076,1.003433,0.002441,-0.168948,-25.68471,-60.15912,24.98113
1784315536.0462,12:12:16.046,0,false,0.648615,-0.31427,0.565491,0.40094,1.020523,0.013184,-0.177737,-25.763069,-60.064929,24.995263
1784315536.0775,12:12:16.077,1,false,0.651077,-0.31665,0.562622,0.399109,1.024918,0.02295,-0.173831,-25.773776,-59.95025,24.918259
1784315536.1089,12:12:16.108,2,false,0.653623,-0.319885,0.559082,0.397339,1.014176,0.033204,-0.187503,-25.873136,-59.832085,24.834001
1784315536.1402,12:12:16.140,3,false,0.655214,-0.322632,0.556458,0.396179,0.989761,0.028809,-0.178225,-26.022376,-59.680874,24.803031
1784315536.1713,12:12:16.171,4,false,0.657899,-0.327271,0.552124,0.393982,0.981949,0.044923,-0.181643,-26.156691,-59.544785,24.74525
1784315536.2025,12:12:16.202,5,false,0.658642,-0.328491,0.550903,0.393433,1.00148,0.023438,-0.1626,-26.202806,-59.347535,24.768017
1784315536.2336,12:12:16.233,6,false,0.660213,-0.330933,0.54834,0.392334,0.985367,0.050294,-0.169924,-26.259263,-59.140103,24.653922
1784315536.2647,12:12:16.264,7,false,0.66149,-0.332031,0.54657,0.391724,0.975601,0.045411,-0.164553,-26.444659,-59.087999,24.401698
1784315536.2959,12:12:16.295,8,false,0.663694,-0.332703,0.543701,0.391418,0.997574,0.026856,-0.177249,-26.387207,-58.71212,24.384051
1784315536.327,12:12:16.327,9,false,0.665259,-0.332581,0.541992,0.391235,0.988296,0.048341,-0.169924,-26.425224,-58.508414,24.203676
1784315536.3582,12:12:16.358,10,false,0.66657,-0.332825,0.540405,0.390991,1.006851,0.044923,-0.175784,-26.489347,-58.295171,24.175923
1784315536.3895,12:12:16.389,11,false,0.66852,-0.332581,0.537476,0.391907,0.974624,0.001953,-0.178714,-26.502196,-58.222883,24.106084
1784315536.4208,12:12:16.420,12,false,0.670373,-0.331726,0.535156,0.392639,0.984878,0.023438,-0.182132,-26.498807,-58.023239,23.848829
1784315536.4522,12:12:16.452,13,false,0.673064,-0.3302,0.53186,0.393799,0.999039,0.019043,-0.192386,-26.555571,-57.858513,23.632253
1784315536.4835,12:12:16.483,14,false,0.674665,-0.329712,0.529541,0.394592,1.00441,0.01709,-0.193362,-26.561798,-57.829891,23.482196
1784315536.5149,12:12:16.514,15,false,0.676117,-0.328918,0.527405,0.39563,0.985855,0.003418,-0.190433,-26.642171,-57.729362,23.347145
1784315536.546,12:12:16.546,16,false,0.67862,-0.325562,0.524658,0.397766,0.971206,-0.01416,-0.214847,-26.624784,-57.653839,23.315322
1784315536.5771,12:12:16.577,17,false,0.681074,-0.322632,0.522217,0.39917,0.97023,-0.004395,-0.213382,-26.594182,-57.570915,23.226866
1784315536.6083,12:12:16.608,18,false,0.684043,-0.319092,0.519287,0.400757,0.960952,-0.02002,-0.234867,-26.506824,-57.331791,22.982763
1784315536.6394,12:12:16.639,19,false,0.688502,-0.313538,0.514343,0.40387,0.982437,0.001953,-0.280278,-26.517926,-57.23621,22.748117
1784315536.6705,12:12:16.670,20,false,0.690745,-0.310364,0.511475,0.406128,0.991714,-0.003418,-0.298833,-26.468101,-57.284772,22.521982
1784315536.7017,12:12:16.701,21,false,0.692696,-0.305908,0.509033,0.409241,0.973159,-0.019532,-0.314458,-26.34849,-57.328477,22.139014
1784315536.7328,12:12:16.732,22,false,0.692898,-0.304993,0.508423,0.410339,0.980972,-0.029297,-0.337896,-26.225887,-57.457536,21.913973
1784315536.7642,12:12:16.764,23,false,0.692946,-0.302979,0.507385,0.413025,0.983413,-0.047364,-0.326177,-26.130497,-57.439103,21.666575
1784315536.7955,12:12:16.795,24,false,0.692659,-0.301697,0.507446,0.414368,0.990249,-0.057618,-0.34229,-26.014739,-57.317837,21.548594
1784315536.8268,12:12:16.826,25,false,0.692178,-0.301392,0.507935,0.414795,0.983413,-0.031739,-0.333989,-25.895603,-57.298421,21.32278
1784315536.8582,12:12:16.858,26,false,0.691387,-0.302002,0.508301,0.415222,0.959976,-0.043458,-0.320806,-25.878103,-57.445439,21.269086
1784315536.8895,12:12:16.889,27,false,0.69056,-0.302612,0.508911,0.415405,0.934096,-0.048341,-0.309575,-25.892261,-57.502985,21.160946
1784315536.9207,12:12:16.920,28,false,0.689414,-0.304565,0.509399,0.415283,0.945327,-0.03418,-0.304204,-25.725558,-57.480008,20.988851
1784315536.9518,12:12:16.951,29,false,0.688445,-0.306152,0.50946,0.415649,0.941909,-0.028321,-0.302739,-25.590478,-57.593913,20.923688
1784315536.9829,12:12:16.982,30,false,0.687759,-0.307434,0.509216,0.416138,0.972183,-0.022461,-0.282231,-25.633399,-57.561843,20.850088
1784315537.0141,12:12:17.014,31,false,0.686954,-0.310059,0.508362,0.416565,0.972671,-0.01416,-0.287114,-25.552396,-57.592795,20.798802
1784315537.0452,12:12:17.045,0,false,0.686376,-0.312012,0.507446,0.417175,0.971206,-0.009277,-0.294438,-25.449587,-57.605699,20.662921
1784315537.0764,12:12:17.076,1,false,0.685082,-0.313904,0.506165,0.419434,0.977554,-0.023926,-0.293462,-25.506597,-57.647219,20.645305
1784315537.1075,12:12:17.107,2,false,0.684514,-0.314819,0.505249,0.420776,0.977554,-0.020996,-0.304692,-25.438275,-57.520096,20.464959
1784315537.1388,12:12:17.138,3,false,0.684167,-0.315552,0.504089,0.42218,0.931167,-0.011719,-0.304204,-25.496416,-57.495407,20.317601
1784315537.1702,12:12:17.170,4,false,0.683636,-0.316589,0.50293,0.423645,0.997086,-0.009766,-0.308598,-25.369296,-57.44328,20.22984
1784315537.2015,12:12:17.201,5,false,0.68277,-0.317566,0.502563,0.424744,0.993668,-0.020996,-0.30811,-25.404427,-57.426273,20.180763
1784315537.2328,12:12:17.232,6,false,0.681904,-0.317932,0.502991,0.425354,0.999039,-0.001465,-0.311528,-25.286507,-57.38106,20.181455
1784315537.2642,12:12:17.264,7,false,0.68151,-0.318115,0.503357,0.425415,1.020035,0.028809,-0.323247,-25.359825,-57.23569,20.107309
1784315537.2955,12:12:17.295,8,false,0.680121,-0.319397,0.504578,0.425232,0.956069,0.009766,-0.292973,-25.455718,-57.26935,20.085439
1784315537.3267,12:12:17.326,9,false,0.679415,-0.320618,0.505371,0.4245,0.972183,0.019043,-0.29102,-25.57193,-57.254783,20.065756
1784315537.358,12:12:17.358,10,false,0.677438,-0.321777,0.50708,0.424744,0.949722,-0.003906,-0.279301,-25.646613,-57.166903,20.092903
1784315537.3891,12:12:17.389,11,false,0.675686,-0.322327,0.508606,0.425293,0.936538,-0.010742,-0.257816,-25.668967,-57.237349,20.147243
1784315537.4203,12:12:17.420,12,false,0.673877,-0.323425,0.509949,0.42572,0.960952,-0.012207,-0.269535,-25.539546,-57.225982,20.166241
1784315537.4514,12:12:17.451,13,false,0.671041,-0.325378,0.51178,0.426514,0.973648,-0.038575,-0.268559,-25.58756,-57.230705,20.228201
1784315537.4826,12:12:17.482,14,false,0.669982,-0.325928,0.512817,0.426514,0.977066,-0.028321,-0.276371,-25.675634,-57.100371,20.283965
1784315537.5139,12:12:17.513,15,false,0.669314,-0.327087,0.513306,0.426086,0.98439,-0.020508,-0.267582,-25.710039,-57.087747,20.229475
1784315537.5452,12:12:17.545,16,false,0.668567,-0.328125,0.514526,0.424988,1.049332,0.002441,-0.282231,-25.72605,-56.867033,20.449604
1784315537.5766,12:12:17.576,17,false,0.668243,-0.328796,0.515625,0.423645,1.022965,0.029297,-0.249027,-25.740459,-56.713251,20.513135
1784315537.6079,12:12:17.607,18,false,0.667086,-0.330872,0.516846,0.422363,0.966323,-0.006836,-0.234867,-25.753428,-56.724385,20.630129
1784315537.6393,12:12:17.639,19,false,0.666748,-0.331482,0.51709,0.422119,0.919936,0.003418,-0.222171,-25.7651,-56.659637,20.630746
1784315537.6706,12:12:17.670,20,false,0.666298,-0.332764,0.517395,0.421448,0.970718,0.031739,-0.230472,-25.83542,-56.661179,20.58644
1784315537.7017,12:12:17.701,21,false,0.665684,-0.334167,0.517578,0.421082,0.965347,0.006836,-0.229007,-25.958523,-56.557891,20.591426
1784315537.7331,12:12:17.733,22,false,0.664623,-0.335938,0.517944,0.420898,1.018082,0.0,-0.224613,-26.069316,-56.435023,20.700591
1784315537.7642,12:12:17.764,23,false,0.663906,-0.336365,0.518982,0.42041,1.049332,0.013672,-0.203616,-26.109214,-56.339396,20.783885
1784315537.7953,12:12:17.795,24,false,0.662467,-0.33728,0.520325,0.420288,1.020523,0.029297,-0.187503,-26.085307,-56.417824,20.813988
1784315537.8265,12:12:17.826,25,false,0.660982,-0.337585,0.521667,0.420715,0.942885,0.005859,-0.204105,-26.123607,-56.473455,20.960711
1784315537.8576,12:12:17.857,26,false,0.661118,-0.33728,0.521545,0.420898,0.929213,0.047852,-0.184573,-26.17303,-56.538477,20.92827
1784315537.889,12:12:17.889,27,false,0.660936,-0.341736,0.520447,0.418945,0.988296,0.083986,-0.166995,-26.202557,-56.432504,21.033658
1784315537.9203,12:12:17.920,28,false,0.660166,-0.344299,0.520569,0.417908,0.956069,0.045411,-0.154788,-26.214177,-56.247406,21.068692
1784315537.9516,12:12:17.951,29,false,0.65956,-0.346619,0.520874,0.416565,0.976089,0.059571,-0.150881,-26.374174,-56.305125,20.995545
1784315537.983,12:12:17.983,30,false,0.658648,-0.347717,0.522705,0.414795,1.006363,0.02295,-0.160647,-26.338725,-56.19258,21.15402
1784315538.0143,12:12:18.014,31,false,0.657863,-0.345947,0.524719,0.414978,0.979507,0.026856,-0.171878,-26.276913,-56.09129,21.191972
1784315538.0455,12:12:18.045,0,false,0.658105,-0.346008,0.525146,0.414001,1.060075,0.027344,-0.216312,-26.281098,-55.97022,21.241081
1784315538.0766,12:12:18.076,1,false,0.657403,-0.348999,0.525391,0.412292,1.049821,0.099611,-0.230472,-26.240003,-55.936027,21.255373
1784315538.1077,12:12:18.107,2,false,0.654521,-0.354553,0.52594,0.411438,0.993179,0.082033,-0.227054,-26.367509,-55.860392,21.283189
1784315538.1389,12:12:18.138,3,false,0.650087,-0.361023,0.527893,0.410339,0.956558,-0.022461,-0.205081,-26.407496,-55.717551,21.4129
1784315538.17,12:12:18.170,4,false,0.64867,-0.363403,0.528381,0.409851,0.923842,0.092775,-0.140139,-26.443484,-55.588994,21.469824
1784315538.2011,12:12:18.201,5,false,0.645913,-0.369263,0.527649,0.409912,0.848646,0.038087,-0.102541,-26.460919,-55.338709,21.640687
1784315538.2323,12:12:18.232,6,false,0.647012,-0.370667,0.524597,0.410828,0.856458,0.098634,-0.080568,-26.476611,-55.337759,21.764556
1784315538.2636,12:12:18.263,7,false,0.650691,-0.373047,0.514709,0.415344,0.912123,0.147463,-0.124025,-26.625318,-55.20232,21.741454
1784315538.295,12:12:18.295,8,false,0.654217,-0.37207,0.505859,0.421509,1.04445,0.064454,-0.21973,-26.62457,-55.14024,21.705708
1784315538.3263,12:12:18.326,9,false,0.657525,-0.366882,0.498108,0.430054,0.988296,0.008301,-0.272953,-26.758482,-54.919876,21.613721
1784315538.3576,12:12:18.357,10,false,0.66218,-0.358582,0.487732,0.44165,0.980484,-0.044434,-0.364752,-26.654694,-54.871087,21.291671
1784315538.389,12:12:18.389,11,false,0.666728,-0.352783,0.481445,0.44635,1.000992,-0.066407,-0.396002,-26.50147,-54.812222,20.971919
1784315538.4203,12:12:18.420,12,false,0.671568,-0.345764,0.477295,0.449036,1.01564,-0.039551,-0.450202,-26.273846,-54.729337,20.489742
1784315538.4517,12:12:18.451,13,false,0.676922,-0.336182,0.47467,0.45105,0.993668,0.025391,-0.45655,-25.949353,-54.729509,20.130552
1784315538.4828,12:12:18.482,14,false,0.67921,-0.331055,0.474426,0.45166,0.990249,0.025391,-0.461433,-25.58254,-54.550218,19.657742
1784315538.5139,12:12:18.513,15,false,0.678616,-0.328979,0.477234,0.451111,1.050309,0.012696,-0.481941,-25.431854,-54.628118,19.321937
1784315538.5451,12:12:18.545,16,false,0.677846,-0.328369,0.480408,0.449341,1.025406,-0.036622,-0.432624,-25.176606,-54.653366,19.064573
1784315538.5764,12:12:18.576,17,false,0.67746,-0.327942,0.483398,0.447021,0.978042,0.051759,-0.374517,-25.006699,-54.631227,18.922669
1784315538.6076,12:12:18.607,18,false,0.676491,-0.328613,0.485535,0.445679,0.937026,0.01416,-0.345708,-24.823874,-54.626257,18.660371
1784315538.6389,12:12:18.638,19,false,0.675713,-0.328613,0.487732,0.444458,0.886732,0.03418,-0.312505,-24.793917,-54.711506,18.738333
1784315538.6702,12:12:18.670,20,false,0.677106,-0.327942,0.488525,0.441956,0.942885,0.024903,-0.334478,-24.722094,-54.803185,18.644007
1784315538.7016,12:12:18.701,21,false,0.677698,-0.327515,0.488708,0.441162,0.98439,0.012696,-0.341314,-24.552776,-54.945511,18.54416
1784315538.7329,12:12:18.732,22,false,0.678537,-0.323608,0.490967,0.440247,0.974136,-0.005859,-0.336919,-24.445252,-55.043696,18.529066
1784315538.7642,12:12:18.764,23,false,0.679293,-0.319275,0.493408,0.439514,0.997574,0.017578,-0.332036,-24.438203,-54.997479,18.485575
1784315538.7956,12:12:18.795,24,false,0.680053,-0.312988,0.49762,0.43811,0.979995,-0.004395,-0.324224,-24.431858,-55.105421,18.446432
1784315538.8269,12:12:18.826,25,false,0.679644,-0.309021,0.501343,0.437317,1.003433,-0.013672,-0.322759,-24.396241,-55.20257,18.381296
1784315538.8583,12:12:18.858,26,false,0.677498,-0.307251,0.505371,0.437256,0.971695,-0.022461,-0.305669,-24.438955,-55.319911,18.397443
1784315538.8894,12:12:18.889,27,false,0.673226,-0.305786,0.511353,0.437927,0.954116,-0.079591,-0.272465,-24.492351,-55.560103,18.501698
1784315538.9205,12:12:18.920,28,false,0.669926,-0.304321,0.515808,0.438782,0.950698,-0.089845,-0.242191,-24.465638,-55.776275,18.37122
1784315538.9517,12:12:18.951,29,false,0.666637,-0.303101,0.520508,0.439087,0.914565,-0.093263,-0.203616,-24.516366,-56.120369,18.508005
1784315538.9828,12:12:18.982,30,false,0.661011,-0.29895,0.529236,0.440002,0.957046,-0.119631,-0.204105,-24.621836,-56.370238,18.466619
1784315539.0142,12:12:19.014,31,false,0.6557,-0.296326,0.5354,0.442261,0.924819,-0.127443,-0.200687,-24.612082,-56.729705,18.743403
1784315539.0455,12:12:19.045,0,false,0.646492,-0.292725,0.543945,0.447754,0.919936,-0.20264,-0.218753,-24.438812,-56.993409,18.932693
1784315539.0768,12:12:19.076,1,false,0.64346,-0.290955,0.54657,0.450073,0.975113,-0.286625,-0.221195,-24.477268,-57.185882,19.20773
1784315539.1082,12:12:19.108,2,false,0.635293,-0.289063,0.552795,0.455261,1.025895,-0.3794,-0.229007,-24.302525,-57.463784,19.544987
1784315539.1395,12:12:19.139,3,false,0.631424,-0.289978,0.556885,0.455078,1.000504,-0.36817,-0.201175,-24.249934,-57.743804,19.89338
1784315539.1707,12:12:19.170,4,false,0.624235,-0.292419,0.563721,0.455017,0.911147,-0.125978,-0.187503,-24.382047,-58.010775,20.117211
1784315539.2018,12:12:19.201,5,false,0.618896,-0.295105,0.567505,0.455872,0.938491,-0.204105,-0.208988,-24.396272,-58.385634,20.408381
1784315539.2329,12:12:19.232,6,false,0.614825,-0.296448,0.571899,0.455017,0.849134,-0.210452,-0.183108,-24.409075,-58.723007,20.670435
1784315539.2641,12:12:19.264,7,false,0.614037,-0.301025,0.575073,0.449036,0.993179,0.036622,-0.133303,-24.480413,-58.892059,20.951144
1784315539.2952,12:12:19.295,8,false,0.614041,-0.307678,0.575623,0.443787,1.025895,0.028809,-0.107912,-24.514709,-59.089066,21.173875
1784315539.3263,12:12:19.326,9,false,0.613415,-0.319153,0.577209,0.434387,1.087907,-0.001953,-0.063966,-24.650253,-59.221512,21.47901
1784315539.3577,12:12:19.357,10,false,0.612305,-0.326477,0.578308,0.429016,1.091814,0.084962,-0.02002,-24.742335,-59.310805,21.753631
1784315539.3888,12:12:19.388,11,false,0.610708,-0.33374,0.578735,0.42511,1.071794,0.081544,-0.008789,-24.840162,-59.256584,22.090514
1784315539.4202,12:12:19.420,12,false,0.609423,-0.34082,0.578064,0.422241,1.10695,0.011719,-0.000977,-24.988022,-59.222739,22.408661
1784315539.4515,12:12:19.451,13,false,0.608488,-0.342224,0.578308,0.422119,1.042985,0.028809,0.012207,-25.151003,-59.012833,22.694995
1784315539.4828,12:12:19.482,14,false,0.606693,-0.34491,0.578064,0.422852,0.995621,-0.097658,-0.005371,-25.267779,-58.973455,22.952694
1784315539.5142,12:12:19.514,15,false,0.6091,-0.343018,0.577148,0.42218,0.91603,-0.089845,-0.013672,-25.552323,-59.087554,23.229486
1784315539.5453,12:12:19.545,16,false,0.613302,-0.34137,0.574829,0.420593,0.952651,-0.009277,-0.046876,-25.748598,-59.055658,23.44869
1784315539.5765,12:12:19.576,17,false,0.618865,-0.341248,0.568909,0.420593,0.995621,0.036133,-0.114748,-25.820568,-59.101721,23.645974
1784315539.6078,12:12:19.607,18,false,0.620192,-0.341187,0.566956,0.421326,0.943862,0.003418,-0.138674,-25.885341,-58.963732,23.688945
1784315539.6391,12:12:19.639,19,false,0.623718,-0.340942,0.559814,0.425842,0.96437,-0.003418,-0.174319,-25.868868,-58.98908,23.578081
1784315539.6703,12:12:19.670,20,false,0.626184,-0.341431,0.554077,0.429321,0.983902,-0.037598,-0.203128,-25.868996,-58.952078,23.568026
1784315539.7014,12:12:19.701,21,false,0.628866,-0.339966,0.547668,0.434753,0.992691,-0.076661,-0.239261,-25.794341,-58.814099,23.349623
1784315539.7326,12:12:19.732,22,false,0.630118,-0.336731,0.544861,0.438965,1.019547,-0.107424,-0.281254,-25.772014,-58.615149,23.302598
1784315539.7637,12:12:19.763,23,false,0.630892,-0.333252,0.542542,0.443359,1.034684,-0.099611,-0.287114,-25.707058,-58.645448,23.140645
1784315539.795,12:12:19.795,24,false,0.631413,-0.327209,0.540283,0.449829,0.990249,-0.167483,-0.29688,-25.633644,-58.508224,22.905165
1784315539.8264,12:12:19.826,25,false,0.631522,-0.322815,0.539429,0.453857,0.948745,-0.173342,-0.301762,-25.567571,-58.280046,22.693232
1784315539.8577,12:12:19.857,26,false,0.63281,-0.318604,0.538208,0.456482,0.926772,-0.149905,-0.309575,-25.508105,-58.254132,22.502493
1784315539.889,12:12:19.889,27,false,0.635202,-0.315369,0.536255,0.457703,0.991226,-0.093263,-0.302739,-25.305048,-58.35044,22.330828
1784315539.9204,12:12:19.920,28,false,0.635772,-0.314636,0.535645,0.45813,0.992203,-0.096681,-0.29688,-25.256881,-58.347394,22.02679
1784315539.9517,12:12:19.951,29,false,0.635429,-0.311768,0.536316,0.459778,0.975601,-0.1084,-0.288579,-25.243438,-58.344653,21.932603
1784315539.9831,12:12:19.983,30,false,0.635467,-0.309143,0.537109,0.460571,0.959976,-0.099611,-0.266117,-25.096755,-58.387047,21.817927
1784315540.0142,12:12:20.014,31,false,0.635292,-0.306702,0.538086,0.461304,0.967788,-0.130861,-0.261723,-24.934833,-58.425202,21.505364
1784315540.0453,12:12:20.045,0,false,0.635428,-0.30127,0.540466,0.461914,0.958511,-0.129885,-0.266606,-24.804056,-58.519357,21.418458
1784315540.0765,12:12:20.076,1,false,0.635714,-0.298584,0.541931,0.461548,1.019059,-0.140139,-0.269535,-24.671404,-58.514373,21.355196
1784315540.1076,12:12:20.107,2,false,0.634009,-0.296631,0.545044,0.461487,1.025895,-0.146975,-0.242679,-24.64174,-58.67438,21.148722
1784315540.139,12:12:20.139,3,false,0.633194,-0.296143,0.546204,0.461548,0.984878,-0.149905,-0.228519,-24.659903,-58.743617,21.022711
1784315540.1703,12:12:20.170,4,false,0.631066,-0.295837,0.549133,0.461182,1.013199,-0.137697,-0.223636,-24.571574,-59.045192,20.969116
1784315540.2016,12:12:20.201,5,false,0.629703,-0.296326,0.550842,0.460693,1.010758,-0.136721,-0.210941,-24.492077,-59.196979,20.846111
1784315540.233,12:12:20.233,6,false,0.626733,-0.298218,0.553406,0.460449,1.012222,-0.093263,-0.206546,-24.525207,-59.393402,21.004576
1784315540.2643,12:12:20.264,7,false,0.623739,-0.300537,0.555176,0.460876,0.98146,-0.152346,-0.188968,-24.525116,-59.375783,21.027564
1784315540.2957,12:12:20.295,8,false,0.621337,-0.302307,0.557007,0.460754,0.971695,-0.153323,-0.176272,-24.510081,-59.554326,21.137976
1784315540.327,12:12:20.327,9,false,0.618319,-0.304688,0.559265,0.46051,0.975113,-0.117189,-0.180179,-24.571318,-59.640245,21.192486
1784315540.3581,12:12:20.358,10,false,0.616163,-0.307007,0.560425,0.460449,0.990249,-0.112795,-0.178225,-24.611478,-59.62785,21.22659
1784315540.3893,12:12:20.389,11,false,0.613698,-0.309753,0.561768,0.460266,1.013687,-0.134279,-0.167483,-24.572852,-59.691463,21.361961
1784315540.4206,12:12:20.420,12,false,0.609121,-0.313171,0.565491,0.459473,1.019059,-0.116701,-0.160647,-24.433413,-59.658992,21.394072
1784315540.4517,12:12:20.451,13,false,0.605622,-0.315735,0.568115,0.459106,1.009293,-0.116213,-0.150393,-24.442501,-59.689583,21.512695
1784315540.4829,12:12:20.482,14,false,0.599621,-0.31958,0.572021,0.459473,0.969741,-0.106447,-0.141115,-24.480589,-59.761976,21.574594
1784315540.514,12:12:20.514,15,false,0.597593,-0.320618,0.57312,0.460022,0.947768,-0.166506,-0.124025,-24.514868,-59.752362,21.73498
1784315540.5454,12:12:20.545,16,false,0.592393,-0.321899,0.576416,0.461731,0.968276,-0.150393,-0.108888,-24.620488,-59.7138,21.954097
1784315540.5767,12:12:20.576,17,false,0.589514,-0.321533,0.578491,0.463074,0.992691,-0.139162,-0.125002,-24.745454,-59.783772,22.10644
1784315540.608,12:12:20.608,18,false,0.584785,-0.319763,0.582397,0.465393,0.991714,-0.202152,-0.102541,-24.7682,-59.861701,22.258503
1784315540.6394,12:12:20.639,19,false,0.582403,-0.317017,0.585205,0.466736,0.948745,-0.213382,-0.098634,-24.728856,-59.961744,22.350498
1784315540.6707,12:12:20.670,20,false,0.580858,-0.313721,0.587585,0.467896,0.963394,-0.231937,-0.110842,-24.738308,-60.081691,22.403386
1784315540.7021,12:12:20.702,21,false,0.580811,-0.309265,0.589844,0.468079,0.990249,-0.207523,-0.100587,-24.746815,-60.084966,22.58557
1784315540.7332,12:12:20.733,22,false,0.581685,-0.305969,0.590942,0.467773,0.984878,-0.211917,-0.110842,-24.649794,-60.132775,22.839258
1784315540.7643,12:12:20.764,23,false,0.583352,-0.301819,0.591675,0.467468,0.984878,-0.197269,-0.113283,-24.607337,-60.175804,22.858224
1784315540.7955,12:12:20.795,24,false,0.584667,-0.299377,0.591858,0.467163,0.990249,-0.212406,-0.12256,-24.628941,-60.274344,23.099601
1784315540.8266,12:12:20.826,25,false,0.585651,-0.297302,0.59198,0.467102,0.968276,-0.189944,-0.13135,-24.648385,-60.363031,23.182255
1784315540.8578,12:12:20.857,26,false,0.586965,-0.295105,0.592163,0.466614,0.987808,-0.183108,-0.117678,-24.695792,-60.592388,23.211783
1784315540.8891,12:12:20.889,27,false,0.587678,-0.293823,0.592285,0.46637,0.995621,-0.189456,-0.127932,-24.648735,-60.813762,23.223404
1784315540.9204,12:12:20.920,28,false,0.588052,-0.292358,0.59259,0.466431,0.988785,-0.204593,-0.119631,-24.681153,-60.93823,23.383401
1784315540.9518,12:12:20.951,29,false,0.588896,-0.290344,0.593079,0.466003,0.980972,-0.210941,-0.120607,-24.590698,-61.050251,23.303091
1784315540.9831,12:12:20.983,30,false,0.589083,-0.289368,0.593323,0.466064,0.986831,-0.211429,-0.119142,-24.43452,-61.121163,23.275674
1784315541.0144,12:12:21.014,31,false,0.588986,-0.288391,0.59375,0.466248,0.966812,-0.209964,-0.119142,-24.353775,-61.274706,23.236044
1784315541.0458,12:12:21.045,0,false,0.588944,-0.288208,0.593689,0.466492,0.946304,-0.228031,-0.129397,-24.221289,-61.502618,23.17047
1784315541.0771,12:12:21.077,1,false,0.589991,-0.286682,0.593628,0.466187,0.996597,-0.217777,-0.138674,-24.117006,-61.588108,23.096499
1784315541.1083,12:12:21.108,2,false,0.590677,-0.285583,0.593811,0.465759,1.006851,-0.218753,-0.126955,-24.127827,-61.709911,23.149556
1784315541.1394,12:12:21.139,3,false,0.590873,-0.284302,0.594421,0.465515,0.993179,-0.220218,-0.125978,-24.077752,-61.804579,23.122538
1784315541.1705,12:12:21.170,4,false,0.591174,-0.283264,0.594666,0.465454,0.963394,-0.25391,-0.121584,-24.01773,-61.800058,23.24776
1784315541.2017,12:12:21.201,5,false,0.592092,-0.282349,0.594666,0.464844,0.963394,-0.248051,-0.129397,-24.023525,-61.915619,23.210922
1784315541.2328,12:12:21.232,6,false,0.593498,-0.281616,0.594421,0.463806,0.971695,-0.208499,-0.132326,-24.073603,-61.780363,23.297398
1784315541.264,12:12:21.264,7,false,0.594223,-0.281433,0.594116,0.463379,0.960464,-0.225589,-0.119142,-23.95418,-61.838079,23.360273
1784315541.2953,12:12:21.295,8,false,0.595509,-0.281494,0.593323,0.462708,0.972671,-0.224613,-0.125002,-23.876607,-61.845161,23.342091
1784315541.3266,12:12:21.326,9,false,0.597713,-0.280823,0.592041,0.461914,0.958511,-0.224125,-0.139162,-23.896515,-61.851535,23.29582
1784315541.358,12:12:21.358,10,false,0.599253,-0.280273,0.591125,0.461426,0.975113,-0.230472,-0.139162,-23.809755,-61.872226,23.224268
1784315541.3893,12:12:21.389,11,false,0.602,-0.280762,0.58905,0.460205,0.982437,-0.222171,-0.145022,-23.941025,-61.801125,23.144917
1784315541.4207,12:12:21.420,12,false,0.604217,-0.280884,0.587769,0.458862,0.975113,-0.205081,-0.160647,-23.924583,-61.752087,23.088456
1784315541.452,12:12:21.452,13,false,0.606681,-0.281067,0.586426,0.457214,1.000992,-0.184085,-0.160159,-23.939694,-61.842538,23.097456
1784315541.4832,12:12:21.483,14,false,0.609127,-0.281799,0.584961,0.455383,0.998062,-0.177249,-0.176272,-23.908431,-61.744498,23.030786
1784315541.5144,12:12:21.514,15,false,0.610157,-0.281738,0.584534,0.45459,0.983902,-0.181643,-0.152346,-24.01488,-61.671215,22.881061
1784315541.5455,12:12:21.545,16,false,0.611295,-0.281494,0.583984,0.453918,0.970718,-0.172854,-0.145998,-24.050868,-61.665076,22.880892
1784315541.5766,12:12:21.576,17,false,0.611642,-0.281189,0.583862,0.453796,0.960952,-0.186526,-0.158694,-24.023442,-61.524967,22.895695
1784315541.6078,12:12:21.607,18,false,0.612898,-0.280029,0.583435,0.453369,0.98146,-0.197757,-0.174807,-24.133343,-61.488591,22.953878
1784315541.6389,12:12:21.638,19,false,0.613985,-0.279297,0.583069,0.45282,0.994644,-0.194827,-0.168948,-24.172439,-61.515669,22.961382
1784315541.6703,12:12:21.670,20,false,0.614765,-0.27887,0.582642,0.452576,0.981949,-0.174319,-0.1626,-24.252486,-61.3905,22.923274
1784315541.7016,12:12:21.701,21,false,0.615172,-0.278198,0.582581,0.452515,0.975601,-0.193362,-0.183108,-24.189945,-61.367571,22.874023
1784315541.7329,12:12:21.732,22,false,0.615696,-0.277649,0.582336,0.452454,0.979507,-0.18262,-0.181643,-24.253288,-61.466566,22.829697
1784315541.7643,12:12:21.764,23,false,0.615868,-0.277893,0.581848,0.452698,0.962905,-0.184085,-0.169436,-24.20562,-61.720153,22.804757
1784315541.7956,12:12:21.795,24,false,0.616133,-0.277588,0.581665,0.452759,0.973159,-0.194827,-0.184573,-24.192626,-61.58949,22.73745
1784315541.8269,12:12:21.826,25,false,0.616496,-0.277466,0.581482,0.452576,0.993668,-0.166018,-0.171389,-24.345424,-61.561616,22.617058
1784315541.8582,12:12:21.858,26,false,0.616548,-0.277832,0.581299,0.452515,0.993179,-0.16553,-0.176272,-24.333404,-61.536529,22.658244
1784315541.8893,12:12:21.889,27,false,0.615867,-0.278503,0.581177,0.453186,0.983902,-0.169436,-0.171878,-24.427263,-61.633582,22.515865
1784315541.9205,12:12:21.920,28,false,0.615103,-0.279236,0.580872,0.454163,0.977066,-0.200198,-0.15967,-24.392105,-61.631207,22.507355
1784315541.9516,12:12:21.951,29,false,0.61497,-0.279358,0.580811,0.454346,0.978531,-0.187015,-0.166018,-24.510002,-61.733746,22.574465
1784315541.9828,12:12:21.982,30,false,0.614433,-0.279602,0.580688,0.455078,0.977554,-0.198734,-0.170901,-24.421708,-61.721354,22.530187
1784315542.0139,12:12:22.013,31,false,0.614138,-0.279907,0.580566,0.455444,0.975113,-0.192874,-0.176272,-24.357198,-61.680293,22.430521
1784315542.0452,12:12:22.045,0,false,0.613085,-0.280823,0.580566,0.456299,0.970718,-0.194339,-0.166995,-24.164555,-61.703154,22.430545
1784315542.0766,12:12:22.076,1,false,0.612503,-0.281189,0.580811,0.456543,0.983902,-0.191897,-0.160159,-24.095852,-61.589145,22.385705
1784315542.1079,12:12:22.107,2,false,0.61223,-0.281433,0.580933,0.456604,0.975601,-0.188968,-0.164553,-24.048974,-61.441675,22.53975
1784315542.1392,12:12:22.139,3,false,0.611361,-0.28241,0.58075,0.457397,0.974136,-0.191897,-0.160159,-24.171276,-61.473444,22.588666
1784315542.1706,12:12:22.170,4,false,0.61078,-0.282776,0.58075,0.457947,0.979995,-0.19678,-0.151858,-24.236486,-61.487082,22.542968
1784315542.2019,12:12:22.201,5,false,0.610523,-0.282837,0.58075,0.458252,0.988785,-0.203616,-0.167483,-24.115729,-61.544218,22.651378
1784315542.2331,12:12:22.233,6,false,0.610359,-0.28302,0.580688,0.458435,0.98732,-0.190921,-0.165042,-24.022001,-61.431148,22.599409
1784315542.2642,12:12:22.264,7,false,0.610148,-0.283203,0.580627,0.458679,0.975601,-0.193851,-0.1626,-24.117093,-61.389201,22.597498
1784315542.2953,12:12:22.295,8,false,0.610112,-0.283386,0.580383,0.458923,0.967788,-0.207034,-0.175784,-24.023229,-61.441171,22.550917
1784315542.3265,12:12:22.326,9,false,0.610126,-0.283508,0.580261,0.458984,0.991226,-0.196292,-0.170413,-24.178013,-61.383267,22.464132
1784315542.3576,12:12:22.357,10,false,0.610019,-0.283936,0.580261,0.458862,0.985855,-0.170413,-0.18262,-24.107965,-61.271339,22.415934
1784315542.3888,12:12:22.388,11,false,0.60943,-0.284851,0.580383,0.458923,0.977066,-0.19678,-0.167483,-24.134644,-61.260326,22.417417
1784315542.4201,12:12:22.420,12,false,0.609062,-0.285217,0.580444,0.459106,0.968276,-0.175784,-0.166018,-24.128749,-61.175645,22.418751
1784315542.4514,12:12:22.451,13,false,0.608885,-0.285889,0.580444,0.458923,0.970718,-0.192386,-0.169924,-23.914088,-61.159248,22.330229
1784315542.4828,12:12:22.482,14,false,0.608668,-0.286377,0.580383,0.458984,0.981949,-0.181155,-0.152346,-23.885386,-61.338891,22.385144
1784315542.5141,12:12:22.514,15,false,0.608356,-0.286987,0.580505,0.458862,0.978531,-0.172854,-0.150881,-23.859555,-61.291215,22.494383
1784315542.5455,12:12:22.545,16,false,0.60785,-0.287598,0.580444,0.459229,0.995132,-0.160159,-0.149416,-23.821352,-61.218399,22.398298
1784315542.5768,12:12:22.576,17,false,0.607085,-0.287842,0.580688,0.459778,0.965347,-0.194339,-0.160647,-23.816878,-61.122957,22.416498
1784315542.6081,12:12:22.608,18,false,0.606853,-0.287598,0.580811,0.460083,0.973648,-0.186038,-0.155764,-23.797897,-61.126783,22.388017
1784315542.6393,12:12:22.639,19,false,0.606614,-0.287537,0.580994,0.460205,0.979995,-0.187991,-0.157229,-23.855584,-61.204995,22.392291
1784315542.6704,12:12:22.670,20,false,0.606278,-0.287659,0.580994,0.460571,0.976577,-0.181155,-0.155276,-23.817778,-61.365109,22.560631
1784315542.7015,12:12:22.701,21,false,0.60622,-0.287781,0.580994,0.460571,0.982437,-0.183108,-0.164065,-23.858523,-61.404534,22.502782
1784315542.7327,12:12:22.732,22,false,0.606266,-0.287781,0.580994,0.46051,0.976577,-0.188479,-0.168948,-23.745654,-61.365248,22.510534
1784315542.7638,12:12:22.763,23,false,0.606128,-0.288025,0.580872,0.460693,0.994644,-0.189944,-0.1626,-23.883334,-61.494383,22.547418
1784315542.795,12:12:22.795,24,false,0.606151,-0.288147,0.580933,0.46051,0.993179,-0.174319,-0.15967,-23.812846,-61.535835,22.715199
1784315542.8263,12:12:22.826,25,false,0.605969,-0.28833,0.581177,0.460327,0.97023,-0.175296,-0.145022,-23.794269,-61.543234,22.582078
1784315542.8576,12:12:22.857,26,false,0.605847,-0.288391,0.581177,0.460449,0.966812,-0.184573,-0.156741,-23.70278,-61.624663,22.611808
1784315542.889,12:12:22.889,27,false,0.606073,-0.288208,0.581177,0.460266,0.982437,-0.192386,-0.163088,-23.755024,-61.593271,22.474073
1784315542.9203,12:12:22.920,28,false,0.606284,-0.288574,0.580872,0.460144,0.98732,-0.188479,-0.14844,-23.831952,-61.759419,22.350111
1784315542.9517,12:12:22.951,29,false,0.606255,-0.288635,0.580872,0.460144,0.994644,-0.194827,-0.158206,-23.751648,-61.714552,22.268453
1784315542.983,12:12:22.983,30,false,0.60641,-0.28833,0.581055,0.4599,0.979019,-0.189456,-0.154299,-23.694329,-61.659218,22.209915
1784315543.0143,12:12:23.014,31,false,0.606456,-0.28833,0.581055,0.459839,0.9673,-0.190921,-0.147463,-23.852095,-61.744002,22.217046
1784315543.0455,12:12:23.045,0,false,0.607252,-0.288147,0.58075,0.45929,0.985855,-0.171878,-0.167483,-23.829592,-61.685723,22.283279
1784315543.0766,12:12:23.076,1,false,0.607761,-0.287903,0.580627,0.458923,0.988296,-0.191409,-0.163577,-23.719617,-61.767857,22.312981
1784315543.1077,12:12:23.107,2,false,0.608135,-0.287476,0.580688,0.458618,0.969253,-0.194339,-0.156741,-23.755224,-61.752054,22.429436
1784315543.1389,12:12:23.138,3,false,0.608716,-0.286926,0.580688,0.458191,0.983902,-0.176761,-0.163088,-23.727455,-61.573339,22.414615
1784315543.17,12:12:23.170,4,false,0.609596,-0.286377,0.580566,0.45752,0.976089,-0.17969,-0.161135,-23.852001,-61.472311,22.476045
1784315543.2014,12:12:23.201,5,false,0.610273,-0.285889,0.580383,0.457153,1.006363,-0.170901,-0.166506,-23.829507,-61.441201,22.516378
1784315543.2327,12:12:23.232,6,false,0.610381,-0.285828,0.580444,0.45697,0.994644,-0.173831,-0.158694,-23.809264,-61.383294,22.582586
1784315543.264,12:12:23.264,7,false,0.610556,-0.2854,0.580566,0.456848,0.978042,-0.184573,-0.161135,-23.835906,-61.331178,22.642173
1784315543.2954,12:12:23.295,8,false,0.610862,-0.284851,0.580322,0.457092,0.976089,-0.184573,-0.164065,-23.829976,-61.448766,22.57617
1784315543.3267,12:12:23.326,9,false,0.610961,-0.28479,0.5802,0.457153,0.978042,-0.190433,-0.160159,-23.764824,-61.345241,22.561629
1784315543.3581,12:12:23.358,10,false,0.611152,-0.284424,0.580322,0.45697,0.977554,-0.190921,-0.164553,-23.825818,-61.401608,22.548543
1784315543.3892,12:12:23.389,11,false,0.611333,-0.28418,0.580444,0.456726,0.983902,-0.185061,-0.161624,-23.865758,-61.287845,22.551718
1784315543.4203,12:12:23.420,12,false,0.611465,-0.284119,0.580383,0.456665,0.979507,-0.180179,-0.172854,-23.826935,-61.260228,22.629346
1784315543.4515,12:12:23.451,13,false,0.611776,-0.283813,0.580444,0.45636,0.971206,-0.184085,-0.166995,-23.881718,-61.250326,22.759026
1784315543.4826,12:12:23.482,14,false,0.612168,-0.283386,0.580383,0.456177,0.974136,-0.180179,-0.1626,-23.871207,-61.30123,22.786015
1784315543.5138,12:12:23.513,15,false,0.612597,-0.283325,0.5802,0.455872,0.987808,-0.173831,-0.1626,-23.801932,-61.287228,22.825259
1784315543.5449,12:12:23.544,16,false,0.612697,-0.283386,0.580017,0.455933,0.983902,-0.177249,-0.172854,-23.784446,-61.319488,22.860578
1784315543.5762,12:12:23.576,17,false,0.612503,-0.283813,0.579773,0.456238,0.980484,-0.173342,-0.173831,-23.783662,-61.243845,22.697966
1784315543.6076,12:12:23.607,18,false,0.612263,-0.284241,0.579529,0.456604,0.992691,-0.177249,-0.176761,-23.812864,-61.280443,22.566569
1784315543.6389,12:12:23.638,19,false,0.612008,-0.284424,0.579468,0.456909,0.98439,-0.178225,-0.170413,-23.644746,-61.238612,22.59785
1784315543.6702,12:12:23.670,20,false,0.611558,-0.284607,0.579468,0.457397,0.97023,-0.176272,-0.168948,-23.598117,-61.230872,22.506372
1784315543.7014,12:12:23.701,21,false,0.611348,-0.28479,0.579407,0.457642,0.977554,-0.192874,-0.162112,-23.615966,-61.164091,22.558626
1784315543.7325,12:12:23.732,22,false,0.611303,-0.28479,0.579407,0.457703,0.969253,-0.183108,-0.157229,-23.736707,-61.163803,22.650517
1784315543.7637,12:12:23.763,23,false,0.611206,-0.284729,0.579346,0.457947,0.985367,-0.186526,-0.169436,-23.680882,-61.238313,22.628541
1784315543.7948,12:12:23.794,24,false,0.611172,-0.284729,0.579285,0.458069,0.980484,-0.172366,-0.166995,-23.525962,-61.200695,22.683532
1784315543.8259,12:12:23.825,25,false,0.610895,-0.285034,0.579041,0.458557,0.973159,-0.185061,-0.183108,-23.595888,-61.28647,22.643302
1784315543.8571,12:12:23.857,26,false,0.610766,-0.285217,0.578796,0.458923,0.973648,-0.186526,-0.175784,-23.404607,-61.244036,22.666909
1784315543.8882,12:12:23.888,27,false,0.610046,-0.28595,0.578613,0.459656,0.990738,-0.187503,-0.175296,-23.486668,-61.325477,22.628341
1784315543.9194,12:12:23.919,28,false,0.609943,-0.286072,0.578613,0.459717,0.978531,-0.188479,-0.174319,-23.425939,-61.30905,22.683352
1784315543.9507,12:12:23.950,29,false,0.609809,-0.286011,0.578735,0.459778,0.987808,-0.190433,-0.156252,-23.535775,-61.30922,22.643139
1784315543.982,12:12:23.982,30,false,0.609826,-0.28595,0.578796,0.459717,0.98146,-0.185061,-0.163577,-23.500043,-61.369189,22.726578
1784315544.0134,12:12:24.013,31,false,0.609694,-0.286133,0.578796,0.459778,0.990249,-0.186526,-0.167971,-23.497792,-61.408206,22.756812
1784315544.0447,12:12:24.044,0,false,0.609843,-0.285889,0.578857,0.459656,0.984878,-0.186038,-0.175784,-23.570535,-61.323691,22.784022
1784315544.0761,12:12:24.076,1,false,0.609815,-0.286072,0.578796,0.459656,1.000992,-0.184085,-0.171389,-23.561235,-61.367259,22.733743
1784315544.1074,12:12:24.107,2,false,0.609488,-0.286499,0.578735,0.4599,0.98146,-0.205081,-0.1626,-23.567818,-61.466285,22.703445
1784315544.1385,12:12:24.138,3,false,0.609172,-0.286682,0.578735,0.460205,0.973648,-0.189456,-0.170901,-23.573743,-61.435778,22.721038
1784315544.1697,12:12:24.169,4,false,0.6092,-0.286621,0.578735,0.460205,0.975113,-0.188968,-0.170901,-23.71366,-61.542906,22.677056
1784315544.2008,12:12:24.200,5,false,0.609212,-0.286621,0.578674,0.460266,0.982437,-0.189456,-0.176761,-23.66014,-61.624367,22.801965
1784315544.2319,12:12:24.231,6,false,0.609154,-0.286621,0.578735,0.460266,0.977554,-0.187991,-0.174319,-23.776464,-61.697682,22.839614
1784315544.2631,12:12:24.263,7,false,0.609337,-0.286377,0.578857,0.460022,0.974136,-0.180179,-0.16846,-23.836293,-61.718804,22.843591
1784315544.2942,12:12:24.294,8,false,0.609429,-0.286255,0.578918,0.4599,0.975601,-0.184085,-0.166995,-23.800417,-61.827537,22.862123
1784315544.3256,12:12:24.325,9,false,0.609516,-0.286194,0.578857,0.4599,0.97023,-0.178225,-0.157229,-23.827944,-61.805766,22.789079
1784315544.3569,12:12:24.356,10,false,0.609973,-0.286255,0.578491,0.459717,0.985367,-0.166506,-0.175784,-23.852718,-61.741311,22.678478
1784315544.3882,12:12:24.388,11,false,0.610125,-0.286499,0.578064,0.4599,0.983413,-0.186038,-0.178714,-23.845107,-61.668347,22.668661
1784315544.4196,12:12:24.419,12,false,0.610324,-0.286743,0.577393,0.460327,0.977066,-0.176272,-0.167483,-23.763488,-61.677449,22.659825
1784315544.4509,12:12:24.450,13,false,0.610468,-0.286804,0.577209,0.460327,0.980972,-0.180667,-0.171878,-23.9592,-61.640779,22.651872
1784315544.4823,12:12:24.482,14,false,0.610113,-0.287659,0.576965,0.460571,0.98732,-0.166018,-0.169924,-23.940941,-61.503099,22.540038
1784315544.5134,12:12:24.513,15,false,0.609957,-0.288208,0.576904,0.46051,0.971695,-0.167483,-0.176761,-23.924507,-61.409095,22.618834
1784315544.5447,12:12:24.544,16,false,0.609269,-0.289612,0.576538,0.460999,0.959976,-0.170901,-0.164065,-23.984487,-61.444122,22.585073
1784315544.5759,12:12:24.575,17,false,0.609071,-0.290344,0.576233,0.461182,0.963394,-0.168948,-0.163577,-23.933791,-61.430785,22.554688
1784315544.607,12:12:24.607,18,false,0.608849,-0.290833,0.575928,0.461548,0.979507,-0.167483,-0.160647,-23.94798,-61.448689,22.467526
1784315544.6382,12:12:24.638,19,false,0.608546,-0.291199,0.575623,0.462097,0.971206,-0.198734,-0.162112,-23.960751,-61.390034,22.538619
1784315544.6693,12:12:24.669,20,false,0.608192,-0.291138,0.575439,0.46283,0.971695,-0.187015,-0.177737,-24.047013,-61.367151,22.348387
1784315544.7006,12:12:24.700,21,false,0.608274,-0.290771,0.575439,0.462952,0.979507,-0.187991,-0.174319,-24.049881,-61.31665,22.251948
1784315544.732,12:12:24.732,22,false,0.60835,-0.29071,0.575439,0.462891,0.98146,-0.173342,-0.16553,-24.007599,-61.375875,22.344598
1784315544.7633,12:12:24.763,23,false,0.608386,-0.290466,0.575623,0.462769,0.977554,-0.173342,-0.16553,-24.089177,-61.39927,22.173769
1784315544.7946,12:12:24.794,24,false,0.608386,-0.290466,0.575623,0.462769,0.968276,-0.191409,-0.167971,-23.983151,-61.360511,22.184514
1784315544.826,12:12:24.826,25,false,0.608386,-0.290344,0.575684,0.462769,0.986831,-0.187991,-0.174807,-24.037266,-61.325627,22.194185
1784315544.8573,12:12:24.857,26,false,0.608706,-0.289917,0.575806,0.462463,0.977554,-0.183597,-0.167483,-24.085969,-61.24937,22.172981
1784315544.8885,12:12:24.888,27,false,0.609506,-0.289551,0.575928,0.461487,0.973648,-0.189944,-0.171878,-24.129802,-61.180739,22.288482
1784315544.9196,12:12:24.919,28,false,0.609956,-0.289673,0.575928,0.460815,1.000504,-0.178714,-0.17969,-24.019714,-61.268509,22.212987
1784315544.9507,12:12:24.950,29,false,0.609996,-0.289612,0.576111,0.460571,0.992691,-0.184085,-0.167483,-24.10008,-61.153102,22.339442
1784315544.9819,12:12:24.981,30,false,0.609818,-0.289551,0.576233,0.460693,0.984878,-0.189944,-0.168948,-24.112594,-61.213729,22.363528
1784315545.013,12:12:25.013,31,false,0.609835,-0.289368,0.576355,0.460632,0.967788,-0.184085,-0.158206,-24.108903,-61.283246,22.340343
1784315545.0442,12:12:25.044,0,false,0.609973,-0.289612,0.576233,0.460449,0.96437,-0.169436,-0.160159,-24.000905,-61.360766,22.334431
1784315545.0755,12:12:25.075,1,false,0.610542,-0.289917,0.575867,0.459961,0.985367,-0.180179,-0.159182,-24.053244,-61.430533,22.254341
1784315545.1068,12:12:25.106,2,false,0.610865,-0.289795,0.575684,0.459839,0.991714,-0.175784,-0.167483,-23.995673,-61.418555,22.152353
1784315545.1382,12:12:25.138,3,false,0.610916,-0.289856,0.5755,0.459961,0.995621,-0.157229,-0.166018,-24.033582,-61.46759,22.105425
1784315545.1695,12:12:25.169,4,false,0.611073,-0.289185,0.575623,0.460022,0.971695,-0.178714,-0.178225,-24.007884,-61.451906,22.152912
1784315545.2009,12:12:25.200,5,false,0.611338,-0.289063,0.5755,0.4599,0.995621,-0.18555,-0.180667,-24.059526,-61.407883,22.135836
1784315545.2322,12:12:25.232,6,false,0.61155,-0.289246,0.575378,0.459656,0.988296,-0.166018,-0.172854,-24.001326,-61.368262,22.225144
1784315545.2634,12:12:25.263,7,false,0.611504,-0.289368,0.575317,0.459717,0.993179,-0.170901,-0.174319,-23.978855,-61.407372,22.305521
1784315545.2946,12:12:25.294,8,false,0.61144,-0.289429,0.575256,0.459839,0.983902,-0.174319,-0.178714,-24.138076,-61.457525,22.138599
1784315545.3257,12:12:25.325,9,false,0.611389,-0.28949,0.575134,0.460022,0.979995,-0.178225,-0.175296,-24.02716,-61.487709,22.122954
1784315545.3568,12:12:25.356,10,false,0.611268,-0.289551,0.575134,0.460144,0.981949,-0.192874,-0.176761,-24.002105,-61.440106,22.034104
1784315545.388,12:12:25.388,11,false,0.611055,-0.289734,0.575073,0.460388,0.966812,-0.182132,-0.167483,-23.874878,-61.397262,22.163493
1784315545.4191,12:12:25.419,12,false,0.611101,-0.289612,0.575134,0.460327,0.974624,-0.176761,-0.169924,-23.715513,-61.313842,22.145358
1784315545.4505,12:12:25.450,13,false,0.611199,-0.289551,0.575256,0.460083,0.985367,-0.174807,-0.173342,-23.691715,-61.208856,22.233714
1784315545.4818,12:12:25.481,14,false,0.61113,-0.289429,0.575439,0.460022,0.974136,-0.16846,-0.166995,-23.625435,-61.219045,22.208557
1784315545.5131,12:12:25.513,15,false,0.610946,-0.289673,0.575317,0.460266,0.98732,-0.172366,-0.172854,-23.505967,-61.108585,22.156008
1784315545.5445,12:12:25.544,16,false,0.610917,-0.289612,0.575378,0.460266,0.972671,-0.174807,-0.171878,-23.562939,-61.158709,22.228345
1784315545.5758,12:12:25.575,17,false,0.610767,-0.289734,0.575378,0.460388,0.990249,-0.188479,-0.163577,-23.554398,-61.218775,22.233633
1784315545.6072,12:12:25.607,18,false,0.610739,-0.289673,0.575439,0.460388,0.977554,-0.186526,-0.169924,-23.651389,-61.093388,22.133715
1784315545.6383,12:12:25.638,19,false,0.611148,-0.289368,0.5755,0.459961,0.980484,-0.18262,-0.171389,-23.589141,-61.159985,22.223235
1784315545.6694,12:12:25.669,20,false,0.611418,-0.289185,0.5755,0.459717,0.9673,-0.184085,-0.178714,-23.592934,-61.01057,22.034634
1784315545.7006,12:12:25.700,21,false,0.61147,-0.289124,0.575623,0.459534,0.989273,-0.164065,-0.181643,-23.536532,-60.935911,22.16397
1784315545.7317,12:12:25.731,22,false,0.611263,-0.289124,0.575745,0.459656,0.974624,-0.19678,-0.17969,-23.500724,-61.078072,22.160742
1784315545.7629,12:12:25.762,23,false,0.610746,-0.289124,0.57605,0.459961,0.972183,-0.177249,-0.18262,-23.453544,-61.146201,22.098021
1784315545.794,12:12:25.794,24,false,0.610763,-0.289063,0.576111,0.4599,0.985367,-0.177249,-0.174319,-23.470896,-61.072933,22.131295
1784315545.8253,12:12:25.825,25,false,0.610838,-0.289001,0.576111,0.459839,0.965347,-0.183597,-0.169436,-23.501467,-61.066807,22.146288
1784315545.8567,12:12:25.856,26,false,0.610976,-0.288879,0.576172,0.459656,0.978042,-0.176272,-0.169924,-23.424305,-60.956617,21.980335
1784315545.888,12:12:25.888,27,false,0.610884,-0.289001,0.576111,0.459778,0.985855,-0.176272,-0.162112,-23.39972,-61.126615,22.070239
1784315545.9193,12:12:25.919,28,false,0.610918,-0.289124,0.576111,0.459656,0.959487,-0.179202,-0.157717,-23.467316,-60.950628,22.031523
1784315545.9507,12:12:25.950,29,false,0.610814,-0.289001,0.576233,0.459717,0.970718,-0.176272,-0.16846,-23.483291,-61.121225,22.116308
1784315545.9818,12:12:25.981,30,false,0.610619,-0.288879,0.576355,0.4599,0.978042,-0.174807,-0.166995,-23.4229,-61.170085,22.072984
1784315546.0132,12:12:26.013,31,false,0.610533,-0.288818,0.576477,0.4599,0.981949,-0.191897,-0.153323,-23.607809,-61.258921,22.168577
1784315546.0443,12:12:26.044,0,false,0.610717,-0.288574,0.576599,0.459656,0.983902,-0.191409,-0.16553,-23.624689,-61.308965,22.075165
1784315546.0754,12:12:26.075,1,false,0.610722,-0.288513,0.576721,0.459534,0.995132,-0.173342,-0.160159,-23.609973,-61.174559,22.095771
1784315546.1066,12:12:26.106,2,false,0.610682,-0.288574,0.576782,0.459473,0.973648,-0.178714,-0.163088,-23.566821,-61.143317,22.099362
1784315546.1377,12:12:26.137,3,false,0.610882,-0.288391,0.576904,0.459167,0.980484,-0.183108,-0.166506,-23.632662,-61.16006,22.252133
1784315546.1689,12:12:26.168,4,false,0.610388,-0.288391,0.577087,0.459595,0.971695,-0.175784,-0.166995,-23.617149,-61.175129,22.225135
1784315546.2002,12:12:26.200,5,false,0.610261,-0.288025,0.577209,0.459839,0.967788,-0.178225,-0.166995,-23.558325,-61.084014,22.230743
1784315546.2315,12:12:26.231,6,false,0.610221,-0.287598,0.577271,0.460083,0.979995,-0.188968,-0.170901,-23.5652,-61.166503,22.175976
1784315546.2629,12:12:26.262,7,false,0.610233,-0.287476,0.577271,0.460144,0.98732,-0.177737,-0.170901,-23.556433,-61.300559,22.26127
1784315546.2942,12:12:26.294,8,false,0.610364,-0.286926,0.577454,0.460083,0.988296,-0.175296,-0.172854,-23.563496,-61.331485,22.20345
1784315546.3256,12:12:26.325,9,false,0.610283,-0.286804,0.577454,0.460266,0.996597,-0.186526,-0.172854,-23.644623,-61.239689,22.121504
1784315546.3569,12:12:26.356,10,false,0.610455,-0.28656,0.577637,0.459961,0.971695,-0.174319,-0.172366,-23.762498,-61.30661,22.197292
1784315546.388,12:12:26.388,11,false,0.610719,-0.286194,0.577637,0.459839,0.966812,-0.190921,-0.171878,-23.734002,-61.277117,22.175777
1784315546.4192,12:12:26.419,12,false,0.610817,-0.286133,0.577515,0.4599,0.982437,-0.170413,-0.171389,-23.648539,-61.310388,22.276045
1784315546.4503,12:12:26.450,13,false,0.610817,-0.286133,0.577515,0.4599,0.987808,-0.195315,-0.188479,-23.780977,-61.430055,22.171886
1784315546.4814,12:12:26.481,14,false,0.610616,-0.286316,0.577393,0.460205,0.978531,-0.186526,-0.175784,-23.675863,-61.492893,22.152912
1784315546.5126,12:12:26.512,15,false,0.610509,-0.286865,0.577087,0.460388,0.965835,-0.191409,-0.1626,-23.670984,-61.459725,22.225559
1784315546.5439,12:12:26.543,16,false,0.610641,-0.286804,0.577026,0.460327,0.969741,-0.182132,-0.171878,-23.591823,-61.474735,22.29094
1784315546.5751,12:12:26.575,17,false,0.610671,-0.287109,0.576843,0.460327,0.976089,-0.171389,-0.178225,-23.640209,-61.368614,22.304923
1784315546.6064,12:12:26.606,18,false,0.610229,-0.287781,0.576538,0.460876,0.982437,-0.189456,-0.173342,-23.594034,-61.467504,22.317507
1784315546.6377,12:12:26.637,19,false,0.609946,-0.287964,0.576599,0.46106,0.975113,-0.198734,-0.17969,-23.657153,-61.421921,22.283971
1784315546.6691,12:12:26.669,20,false,0.609808,-0.287964,0.576599,0.461243,0.982925,-0.193851,-0.180667,-23.699006,-61.440712,22.29865
1784315546.7004,12:12:26.700,21,false,0.609859,-0.288147,0.576843,0.460754,0.979507,-0.174807,-0.16846,-23.557228,-61.323039,22.266999
1784315546.7318,12:12:26.731,22,false,0.609917,-0.288391,0.576904,0.460449,0.9673,-0.188968,-0.166506,-23.579166,-61.396579,22.343191
1784315546.7629,12:12:26.762,23,false,0.610095,-0.288696,0.576904,0.460022,0.970718,-0.166018,-0.155764,-23.524141,-61.387996,22.307087
1784315546.794,12:12:26.794,24,false,0.610244,-0.288818,0.576782,0.4599,0.985855,-0.175296,-0.169924,-23.474618,-61.350364,22.3045
1784315546.8252,12:12:26.825,25,false,0.610175,-0.289307,0.576416,0.460144,0.980972,-0.170413,-0.171389,-23.534725,-61.37631,22.317127
1784315546.8563,12:12:26.856,26,false,0.61014,-0.289429,0.576294,0.460266,0.976089,-0.175784,-0.178714,-23.693498,-61.280031,22.253721
1784315546.8875,12:12:26.887,27,false,0.610215,-0.28949,0.576233,0.460205,0.976089,-0.187503,-0.171878,-23.731716,-61.268149,22.196656
1784315546.9186,12:12:26.918,28,false,0.610348,-0.289551,0.576111,0.460144,0.982437,-0.169436,-0.161624,-23.721252,-61.227548,22.190159
1784315546.9497,12:12:26.949,29,false,0.610422,-0.28949,0.576111,0.460083,0.975113,-0.183108,-0.175296,-23.69688,-61.235868,22.274035
1784315546.9811,12:12:26.981,30,false,0.61033,-0.289612,0.57605,0.460205,0.98439,-0.194339,-0.16846,-23.674945,-61.243356,22.244846
1784315547.0124,12:12:27.012,31,false,0.610192,-0.289734,0.575989,0.460388,0.982925,-0.190433,-0.176761,-23.550527,-61.309911,22.263437
1784315547.0437,12:12:27.043,0,false,0.610371,-0.289307,0.576111,0.460266,0.979995,-0.180179,-0.179202,-23.677812,-61.220272,22.250262
1784315547.0751,12:12:27.075,1,false,0.610872,-0.289124,0.575867,0.460022,0.967788,-0.176272,-0.166506,-23.538153,-61.274181,22.283266
1784315547.1064,12:12:27.106,2,false,0.611482,-0.288757,0.575745,0.459595,0.991714,-0.181643,-0.178714,-23.636768,-61.277838,22.387739
1784315547.1378,12:12:27.137,3,false,0.61186,-0.288635,0.575745,0.459167,0.983902,-0.163577,-0.177249,-23.770382,-61.40076,22.377087
1784315547.1689,12:12:27.168,4,false,0.611843,-0.288574,0.575745,0.459229,0.973648,-0.193362,-0.174319,-23.711189,-61.526343,22.382455
1784315547.2,12:12:27.200,5,false,0.612079,-0.288269,0.575745,0.459106,0.981949,-0.182132,-0.172854,-23.897177,-61.415061,22.387285
1784315547.2312,12:12:27.231,6,false,0.612451,-0.288208,0.575623,0.458801,0.975113,-0.180179,-0.181643,-23.870167,-61.389676,22.391633
1784315547.2623,12:12:27.262,7,false,0.613063,-0.288147,0.575439,0.458252,0.974624,-0.176761,-0.169924,-23.905672,-61.426645,22.350685
1784315547.2935,12:12:27.293,8,false,0.613804,-0.288269,0.575073,0.457642,0.989273,-0.177737,-0.173342,-23.817997,-61.534686,22.373646
1784315547.3248,12:12:27.324,9,false,0.614072,-0.28833,0.574951,0.457397,0.983413,-0.162112,-0.181643,-23.78395,-61.377708,22.439173
1784315547.3561,12:12:27.356,10,false,0.614602,-0.287903,0.57489,0.457031,0.966323,-0.171389,-0.178225,-23.813124,-61.430828,22.438332
1784315547.3875,12:12:27.387,11,false,0.614973,-0.28772,0.574585,0.457031,0.972671,-0.154788,-0.175296,-23.704795,-61.463681,22.452529
1784315547.4188,12:12:27.418,12,false,0.615263,-0.287781,0.574341,0.456909,0.9673,-0.170901,-0.175296,-23.697023,-61.358665,22.495214
1784315547.4502,12:12:27.450,13,false,0.615423,-0.287415,0.574402,0.456848,0.971695,-0.187991,-0.176272,-23.645166,-61.264151,22.488769
1784315547.4815,12:12:27.481,14,false,0.61548,-0.287292,0.574402,0.456848,0.983902,-0.170413,-0.174807,-23.628402,-61.313672,22.393245
1784315547.5126,12:12:27.512,15,false,0.61581,-0.286804,0.574341,0.456787,0.968276,-0.167971,-0.182132,-23.583407,-61.298426,22.501674
1784315547.5438,12:12:27.543,16,false,0.616139,-0.286316,0.57428,0.456726,0.976577,-0.171878,-0.173342,-23.647589,-61.224889,22.554398
1784315547.5749,12:12:27.574,17,false,0.616236,-0.286255,0.574158,0.456787,0.975113,-0.175296,-0.180179,-23.555814,-61.278337,22.60185
1784315547.606,12:12:27.606,18,false,0.616083,-0.286438,0.574036,0.457031,0.980484,-0.173831,-0.184573,-23.518078,-61.266624,22.584741
1784315547.6372,12:12:27.637,19,false,0.616361,-0.286499,0.573853,0.456848,0.975601,-0.173831,-0.175296,-23.543931,-61.271037,22.524481
1784315547.6683,12:12:27.668,20,false,0.616356,-0.286926,0.573547,0.45697,0.976089,-0.161624,-0.186526,-23.641968,-61.394639,22.395479
1784315547.6995,12:12:27.699,21,false,0.616543,-0.286987,0.573364,0.456909,0.980972,-0.166018,-0.176761,-23.595617,-61.371296,22.503684
1784315547.7308,12:12:27.730,22,false,0.616686,-0.287292,0.572815,0.457214,0.979507,-0.163088,-0.187991,-23.583808,-61.410103,22.45153
1784315547.7621,12:12:27.762,23,false,0.616754,-0.287537,0.572327,0.457581,0.980484,-0.167483,-0.187015,-23.543273,-61.385214,22.449453
1784315547.7935,12:12:27.793,24,false,0.616826,-0.28772,0.571716,0.45813,0.981949,-0.166506,-0.178714,-23.671283,-61.213275,22.417677
1784315547.8248,12:12:27.824,25,false,0.616984,-0.287842,0.571289,0.458374,0.975601,-0.169436,-0.188479,-23.577139,-61.342653,22.329262
1784315547.8562,12:12:27.856,26,false,0.617073,-0.287964,0.570984,0.458557,0.98439,-0.176272,-0.191897,-23.567178,-61.339463,22.219781
1784315547.8875,12:12:27.887,27,false,0.617237,-0.287903,0.57074,0.458679,0.995132,-0.164553,-0.195804,-23.573167,-61.366499,22.210972
1784315547.9186,12:12:27.918,28,false,0.617083,-0.288208,0.570801,0.458618,0.999039,-0.156741,-0.181155,-23.563603,-61.181478,22.143228
1784315547.9498,12:12:27.949,29,false,0.61692,-0.288269,0.571045,0.458496,0.96144,-0.166995,-0.185061,-23.629765,-61.194406,22.052351
1784315547.9809,12:12:27.980,30,false,0.616466,-0.288147,0.571106,0.459106,0.97023,-0.165042,-0.17969,-23.629496,-61.161179,22.090192
1784315548.0121,12:12:28.012,31,false,0.616433,-0.287903,0.571167,0.459229,0.972183,-0.175784,-0.189944,-23.584392,-61.056505,22.04948
1784315548.0432,12:12:28.043,0,false,0.616387,-0.288025,0.571106,0.45929,0.975601,-0.17969,-0.180667,-23.723244,-61.052022,21.997885
1784315548.0745,12:12:28.074,1,false,0.61637,-0.287964,0.571106,0.459351,0.976577,-0.178225,-0.182132,-23.623904,-61.077895,21.951449
1784315548.1059,12:12:28.105,2,false,0.6167,-0.287598,0.571228,0.458984,0.991714,-0.176761,-0.180179,-23.639174,-60.846965,21.954519
1784315548.1372,12:12:28.137,3,false,0.616798,-0.287292,0.571472,0.45874,0.968276,-0.16846,-0.171389,-23.593102,-60.99802,21.972236
1784315548.1685,12:12:28.168,4,false,0.616996,-0.287109,0.57135,0.45874,0.977554,-0.172366,-0.173342,-23.581545,-60.999386,21.853596
1784315548.1999,12:12:28.199,5,false,0.617155,-0.286865,0.57135,0.458679,0.970718,-0.16846,-0.171389,-23.67582,-60.925845,21.896359
1784315548.2312,12:12:28.231,6,false,0.617343,-0.28656,0.57135,0.458618,0.975601,-0.175784,-0.198245,-23.670945,-60.725074,21.949799
1784315548.2626,12:12:28.262,7,false,0.617846,-0.285767,0.57135,0.458435,0.983413,-0.16846,-0.187991,-23.711419,-60.619149,21.967988
1784315548.2937,12:12:28.293,8,false,0.617993,-0.285522,0.571411,0.458313,0.978531,-0.174319,-0.187503,-23.777754,-60.673356,22.059127
1784315548.3248,12:12:28.324,9,false,0.617767,-0.285767,0.571289,0.458618,0.984878,-0.170901,-0.186038,-23.777639,-60.662326,21.97666
1784315548.356,12:12:28.356,10,false,0.617585,-0.286011,0.571167,0.458862,0.978042,-0.17969,-0.188968,-23.852305,-60.727168,21.797762
1784315548.3871,12:12:28.387,11,false,0.617568,-0.286072,0.571106,0.458923,0.980972,-0.16846,-0.186526,-23.769966,-60.785526,21.771339
1784315548.4183,12:12:28.418,12,false,0.617477,-0.286316,0.570984,0.459045,0.969253,-0.16846,-0.194339,-23.710815,-60.823095,21.882143
1784315548.4494,12:12:28.449,13,false,0.617585,-0.286133,0.571106,0.458862,0.978042,-0.174319,-0.173831,-23.657579,-60.75223,22.011774
1784315548.4807,12:12:28.480,14,false,0.617557,-0.286194,0.571106,0.458862,0.989761,-0.186038,-0.194827,-23.714343,-60.852943,21.96395
1784315548.5121,12:12:28.512,15,false,0.617278,-0.286499,0.570862,0.459351,0.980484,-0.180179,-0.192386,-23.750477,-61.003401,22.055493
1784315548.5434,12:12:28.543,16,false,0.617261,-0.286438,0.570862,0.459412,0.982437,-0.175296,-0.184085,-23.797952,-61.034136,22.078066
1784315548.5748,12:12:28.574,17,false,0.616972,-0.286743,0.570923,0.459534,0.988296,-0.171389,-0.174319,-23.855633,-61.016936,22.083428
1784315548.6059,12:12:28.605,18,false,0.61687,-0.286865,0.570923,0.459595,0.974624,-0.163088,-0.177737,-23.9225,-61.046317,22.0733
1784315548.637,12:12:28.637,19,false,0.616352,-0.287415,0.570862,0.460022,0.982437,-0.168948,-0.186038,-23.773326,-61.102668,22.109046
1784315548.6683,12:12:28.668,20,false,0.61578,-0.288025,0.570679,0.460632,0.974624,-0.174319,-0.180667,-23.713839,-61.153384,22.066448
1784315548.6996,12:12:28.699,21,false,0.615706,-0.288086,0.570679,0.460693,0.986343,-0.182132,-0.183108,-23.824793,-61.04949,22.072972
1784315548.7307,12:12:28.730,22,false,0.615752,-0.287964,0.57074,0.460632,0.987808,-0.180179,-0.187015,-23.790066,-61.000847,22.093797
1784315548.7619,12:12:28.761,23,false,0.615433,-0.288208,0.570862,0.460754,0.992203,-0.159182,-0.176761,-23.728905,-61.136514,21.948048
1784315548.793,12:12:28.793,24,false,0.614717,-0.288574,0.57135,0.460876,0.974624,-0.187503,-0.175296,-23.718722,-61.213753,22.100996
1784315548.8242,12:12:28.824,25,false,0.614463,-0.288269,0.571777,0.460876,0.971695,-0.180179,-0.175296,-23.784326,-61.283268,22.313419
1784315548.8555,12:12:28.855,26,false,0.614294,-0.287903,0.572144,0.460876,0.979507,-0.181155,-0.173831,-23.7686,-61.315924,22.220476
1784315548.8868,12:12:28.886,27,false,0.614173,-0.288086,0.572083,0.460999,0.977554,-0.173831,-0.178714,-23.694632,-61.360268,22.196643
1784315548.9182,12:12:28.918,28,false,0.614254,-0.287964,0.572205,0.460815,0.982437,-0.171389,-0.170901,-23.762645,-61.340362,22.145286
1784315548.9495,12:12:28.949,29,false,0.614484,-0.287598,0.572388,0.46051,0.982925,-0.171389,-0.177737,-23.674318,-61.29254,22.218695
1784315548.9809,12:12:28.980,30,false,0.614473,-0.287476,0.57251,0.460449,0.979995,-0.190921,-0.17969,-23.594824,-61.279407,22.344579
1784315549.0122,12:12:29.012,31,false,0.614438,-0.287476,0.572449,0.460571,0.983902,-0.174319,-0.180667,-23.672818,-61.312449,22.278428
1784315549.0433,12:12:29.043,0,false,0.614495,-0.287476,0.572388,0.460571,0.974136,-0.166995,-0.18555,-23.802827,-61.35714,22.353477
1784315549.0745,12:12:29.074,1,false,0.61457,-0.287292,0.572449,0.46051,0.983902,-0.185061,-0.177249,-23.845067,-61.472132,22.271482
1784315549.1056,12:12:29.105,2,false,0.614369,-0.287598,0.572266,0.460815,0.979019,-0.178714,-0.18262,-23.868129,-61.485902,22.257502
1784315549.1368,12:12:29.136,3,false,0.614318,-0.287537,0.572449,0.460693,0.978531,-0.173831,-0.177737,-23.918792,-61.498294,22.31969
1784315549.1679,12:12:29.167,4,false,0.614445,-0.287415,0.572571,0.460449,0.972671,-0.173342,-0.173831,-24.039158,-61.389817,22.256028
1784315549.199,12:12:29.199,5,false,0.614416,-0.287354,0.572632,0.460449,0.975601,-0.194339,-0.167483,-23.92318,-61.441725,22.318363
1784315549.2304,12:12:29.230,6,false,0.614331,-0.287415,0.572693,0.460449,0.977554,-0.175296,-0.184085,-23.893569,-61.488443,22.404372
1784315549.2617,12:12:29.261,7,false,0.614383,-0.287231,0.572876,0.460266,0.973648,-0.186526,-0.175296,-23.822058,-61.500582,22.451873
1784315549.293,12:12:29.293,8,false,0.614429,-0.287109,0.572937,0.460205,0.978042,-0.192386,-0.173342,-23.802559,-61.466645,22.449762
1784315549.3244,12:12:29.324,9,false,0.614532,-0.286865,0.572998,0.460144,0.98146,-0.178225,-0.174807,-23.829871,-61.406194,22.492723
1784315549.3557,12:12:29.355,10,false,0.614532,-0.286865,0.572998,0.460144,0.976089,-0.169924,-0.177249,-23.854453,-61.531234,22.456619
1784315549.3871,12:12:29.387,11,false,0.61444,-0.286987,0.572937,0.460266,0.979995,-0.17969,-0.171878,-23.876576,-61.539093,22.528803
1784315549.4182,12:12:29.418,12,false,0.614577,-0.286743,0.573059,0.460083,0.974624,-0.174807,-0.177737,-23.836671,-61.486351,22.578814
1784315549.4493,12:12:29.449,13,false,0.614418,-0.286865,0.57312,0.460144,0.991226,-0.186038,-0.172366,-23.755896,-61.364114,22.519147
1784315549.4805,12:12:29.480,14,false,0.614206,-0.287048,0.573059,0.460388,0.963882,-0.181643,-0.183597,-23.743013,-61.418593,22.55517
1784315549.5116,12:12:29.511,15,false,0.614383,-0.286865,0.573059,0.460266,0.971206,-0.183108,-0.178225,-23.716465,-61.377901,22.557683
1784315549.5428,12:12:29.542,16,false,0.614519,-0.286865,0.572815,0.460388,1.015152,-0.161135,-0.186526,-23.692572,-61.416047,22.455268
1784315549.5739,12:12:29.573,17,false,0.614045,-0.287048,0.572937,0.460754,0.978531,-0.197269,-0.176761,-23.760791,-61.360656,22.452818
1784315549.6052,12:12:29.605,18,false,0.613823,-0.286743,0.573181,0.460938,0.976577,-0.190921,-0.177737,-23.837142,-61.325758,22.330981
1784315549.6366,12:12:29.636,19,false,0.613709,-0.286621,0.573364,0.460938,0.977066,-0.191409,-0.175784,-23.935765,-61.309303,22.340959
1784315549.6679,12:12:29.667,20,false,0.613772,-0.28656,0.573425,0.460815,0.971695,-0.192874,-0.177249,-23.919849,-61.309448,22.364894
1784315549.6993,12:12:29.699,21,false,0.613743,-0.286499,0.573486,0.460815,0.979995,-0.153323,-0.173831,-24.025156,-61.35444,22.281757
1784315549.7306,12:12:29.730,22,false,0.613841,-0.286438,0.573608,0.460571,0.978531,-0.174807,-0.172366,-24.224609,-61.320163,22.356473
1784315549.7619,12:12:29.761,23,false,0.613789,-0.286499,0.573486,0.460754,0.997086,-0.187991,-0.184573,-24.075132,-61.289314,22.423717
1784315549.7932,12:12:29.793,24,false,0.613743,-0.286499,0.573486,0.460815,0.98732,-0.182132,-0.189944,-24.075187,-61.426042,22.424422
1784315549.8243,12:12:29.824,25,false,0.613755,-0.286499,0.573425,0.460876,0.982437,-0.174319,-0.183108,-23.880837,-61.399559,22.320379
1784315549.8554,12:12:29.855,26,false,0.613554,-0.286804,0.573242,0.461182,0.974624,-0.182132,-0.17969,-23.735829,-61.450494,22.30151
1784315549.8866,12:12:29.886,27,false,0.613617,-0.286743,0.573303,0.46106,0.976089,-0.177249,-0.180667,-23.739907,-61.406612,22.404158
1784315549.9177,12:12:29.917,28,false,0.613674,-0.286743,0.573242,0.46106,0.972183,-0.180179,-0.173342,-23.788439,-61.367118,22.317095
1784315549.9489,12:12:29.948,29,false,0.613646,-0.286804,0.573242,0.46106,0.963882,-0.177249,-0.175296,-23.637717,-61.406342,22.283601
1784315549.9802,12:12:29.980,30,false,0.613571,-0.286865,0.573242,0.461121,0.985855,-0.183108,-0.172854,-23.54693,-61.262199,22.208594
1784315550.0115,12:12:30.011,31,false,0.613238,-0.287231,0.57312,0.461487,0.975601,-0.184573,-0.173831,-23.614759,-61.192285,22.066318
1784315550.0429,12:12:30.042,0,false,0.613284,-0.287109,0.573181,0.461426,0.979019,-0.188968,-0.173831,-23.61599,-61.15927,22.20744
1784315550.0742,12:12:30.074,1,false,0.613302,-0.286926,0.573303,0.461365,0.980972,-0.183597,-0.17969,-23.527375,-61.294048,22.214818
1784315550.1056,12:12:30.105,2,false,0.613365,-0.286865,0.573364,0.461243,0.98146,-0.177249,-0.179202,-23.627067,-61.34058,22.296228
1784315550.1369,12:12:30.136,3,false,0.613319,-0.286865,0.573364,0.461304,0.997574,-0.180667,-0.188479,-23.627068,-61.367505,22.309681
1784315550.168,12:12:30.168,4,false,0.6134,-0.286499,0.573608,0.461121,0.972671,-0.173831,-0.175296,-23.582206,-61.391737,22.426466
1784315550.1992,12:12:30.199,5,false,0.613463,-0.286438,0.573669,0.460999,0.98146,-0.180667,-0.172366,-23.526877,-61.4285,22.516619
1784315550.2303,12:12:30.230,6,false,0.613365,-0.286499,0.573547,0.461243,0.987808,-0.187503,-0.18555,-23.402312,-61.536356,22.41831
1784315550.2615,12:12:30.261,7,false,0.613486,-0.286438,0.573547,0.461121,0.988296,-0.174807,-0.181643,-23.409834,-61.483887,22.479371
1784315550.2926,12:12:30.292,8,false,0.613194,-0.286743,0.573608,0.461243,0.980484,-0.187015,-0.193362,-23.416604,-61.361897,22.384787
1784315550.3237,12:12:30.323,9,false,0.613062,-0.28656,0.573792,0.461304,0.978531,-0.181155,-0.18262,-23.392789,-61.491367,22.314615
1784315550.3549,12:12:30.354,10,false,0.612758,-0.286865,0.573669,0.46167,0.980484,-0.191897,-0.173342,-23.476032,-61.667705,22.311276
1784315550.3862,12:12:30.386,11,false,0.612833,-0.286804,0.573669,0.461609,0.980484,-0.18555,-0.178225,-23.491136,-61.736686,22.368086
1784315550.4175,12:12:30.417,12,false,0.612822,-0.286804,0.57373,0.461548,0.973648,-0.170901,-0.166018,-23.549591,-61.649231,22.374354
1784315550.4489,12:12:30.448,13,false,0.612776,-0.286926,0.573669,0.461609,0.974624,-0.181155,-0.179202,-23.437708,-61.570521,22.350087
1784315550.48,12:12:30.480,14,false,0.612661,-0.287048,0.57373,0.461609,0.974136,-0.183597,-0.173831,-23.366921,-61.544544,22.313293
1784315550.5112,12:12:30.511,15,false,0.612736,-0.286987,0.57373,0.461548,0.980484,-0.171878,-0.181155,-23.377982,-61.521165,22.339994
1784315550.5423,12:12:30.542,16,false,0.612747,-0.286987,0.573669,0.461609,0.994644,-0.175784,-0.187503,-23.402891,-61.380493,22.274301
1784315550.5734,12:12:30.573,17,false,0.612868,-0.286926,0.573669,0.461487,0.978042,-0.177737,-0.190433,-23.425309,-61.328657,22.469394
1784315550.6046,12:12:30.604,18,false,0.613062,-0.286682,0.57373,0.461304,0.98146,-0.186526,-0.180179,-23.370715,-61.431543,22.390761
1784315550.6357,12:12:30.635,19,false,0.613143,-0.28656,0.573853,0.461121,0.985855,-0.177737,-0.169924,-23.231859,-61.284879,22.454577
1784315550.6669,12:12:30.666,20,false,0.613235,-0.286438,0.573914,0.460999,0.983413,-0.182132,-0.173342,-23.256426,-61.182789,22.362472
1784315550.698,12:12:30.698,21,false,0.613355,-0.286255,0.573975,0.460876,0.979995,-0.184573,-0.189944,-23.338352,-61.075955,22.414163
1784315550.7291,12:12:30.729,22,false,0.613309,-0.286255,0.573975,0.460938,0.983902,-0.194339,-0.174807,-23.427039,-61.099434,22.580315
1784315550.7605,12:12:30.760,23,false,0.613435,-0.286011,0.574158,0.460693,0.974624,-0.176761,-0.173342,-23.447042,-61.150473,22.56536
1784315550.7918,12:12:30.791,24,false,0.613509,-0.28595,0.574158,0.460632,0.976577,-0.176272,-0.181643,-23.509906,-61.226317,22.596761
1784315550.8232,12:12:30.823,25,false,0.613401,-0.286133,0.574036,0.460815,0.973159,-0.16846,-0.182132,-23.521623,-61.264668,22.475485
1784315550.8545,12:12:30.854,26,false,0.613143,-0.286438,0.573914,0.461121,0.976089,-0.183108,-0.177249,-23.337767,-61.224414,22.515874
1784315550.8858,12:12:30.885,27,false,0.612959,-0.286682,0.573792,0.461365,0.98439,-0.174807,-0.176272,-23.247067,-61.068556,22.477455
1784315550.9172,12:12:30.917,28,false,0.612931,-0.286743,0.573792,0.461365,0.980972,-0.190433,-0.176272,-23.210298,-61.197452,22.442878
1784315550.9485,12:12:30.948,29,false,0.612931,-0.286743,0.573792,0.461365,0.989273,-0.181643,-0.170901,-23.132344,-61.119059,22.33699
1784315550.9796,12:12:30.979,30,false,0.612861,-0.286987,0.573547,0.461609,0.982925,-0.182132,-0.177249,-23.316401,-61.212997,22.331413
1784315551.0108,12:12:31.010,31,false,0.613004,-0.286926,0.573425,0.461609,0.995621,-0.178225,-0.18262,-23.257745,-61.267634,22.296486
1784315551.0419,12:12:31.041,0,false,0.612833,-0.28717,0.573486,0.461609,0.985855,-0.174319,-0.18262,-23.354493,-61.346715,22.324868
1784315551.0731,12:12:31.073,1,false,0.612885,-0.287109,0.573608,0.461426,0.986343,-0.187991,-0.177737,-23.321935,-61.31321,22.320503
1784315551.1042,12:12:31.104,2,false,0.612856,-0.287048,0.573669,0.461426,0.97023,-0.175784,-0.188968,-23.412264,-61.283057,22.316575
1784315551.1355,12:12:31.135,3,false,0.612994,-0.286804,0.573792,0.461243,0.965835,-0.184085,-0.184573,-23.523468,-61.211057,22.417717
1784315551.1669,12:12:31.166,4,false,0.613269,-0.28656,0.573914,0.460876,0.975601,-0.180179,-0.178225,-23.533828,-61.101395,22.344252
1784315551.1982,12:12:31.198,5,false,0.613436,-0.286743,0.573792,0.460693,0.975601,-0.171878,-0.180179,-23.528198,-61.1971,22.367857
1784315551.2296,12:12:31.229,6,false,0.613545,-0.286682,0.573853,0.46051,0.992203,-0.169924,-0.174319,-23.418455,-61.193511,22.523686
1784315551.2609,12:12:31.260,7,false,0.613636,-0.286438,0.573975,0.460388,0.971695,-0.186526,-0.17969,-23.379501,-61.205235,22.604117
1784315551.2922,12:12:31.292,8,false,0.613847,-0.286133,0.574097,0.460144,0.982437,-0.19678,-0.187015,-23.419211,-61.290556,22.571828
1784315551.3234,12:12:31.323,9,false,0.613921,-0.286072,0.574097,0.460083,0.980972,-0.187503,-0.174807,-23.664305,-61.352391,22.527813
1784315551.3545,12:12:31.354,10,false,0.61383,-0.286072,0.574097,0.460205,0.979995,-0.186038,-0.178714,-23.61572,-61.303365,22.518108
1784315551.3856,12:12:31.385,11,false,0.613664,-0.286377,0.573975,0.460388,0.983413,-0.176761,-0.172366,-23.497224,-61.259242,22.374789
1784315551.4168,12:12:31.416,12,false,0.613367,-0.286865,0.573853,0.460632,0.983902,-0.175296,-0.172366,-23.465347,-61.219531,22.350479
1784315551.4479,12:12:31.447,13,false,0.613413,-0.286743,0.573914,0.460571,0.97023,-0.178225,-0.181643,-23.481519,-61.213699,22.463184
1784315551.4791,12:12:31.479,14,false,0.613413,-0.286743,0.573914,0.460571,0.979995,-0.189456,-0.178714,-23.570844,-61.178543,22.459942
1784315551.5104,12:12:31.510,15,false,0.613247,-0.286926,0.573853,0.460754,0.986343,-0.18262,-0.175296,-23.486743,-61.161856,22.412162
1784315551.5417,12:12:31.541,16,false,0.613144,-0.286926,0.573914,0.460815,0.980484,-0.179202,-0.174807,-23.575545,-61.236561,22.488791
1784315551.5731,12:12:31.573,17,false,0.613144,-0.286926,0.573914,0.460815,0.969253,-0.178225,-0.178714,-23.520882,-61.16921,22.438127
1784315551.6044,12:12:31.604,18,false,0.613155,-0.287048,0.573792,0.460876,0.980972,-0.179202,-0.178714,-23.531501,-61.213272,22.332714
1784315551.6356,12:12:31.635,19,false,0.613035,-0.287109,0.573792,0.460999,0.97023,-0.166995,-0.183108,-23.660688,-61.133297,22.312611
1784315551.6667,12:12:31.666,20,false,0.61319,-0.286926,0.573914,0.460754,0.969741,-0.175784,-0.172854,-23.657326,-61.106181,22.429103
1784315551.6978,12:12:31.697,21,false,0.613173,-0.286987,0.573853,0.460815,0.98439,-0.177249,-0.164553,-23.699162,-61.111684,22.399361
1784315551.729,12:12:31.729,22,false,0.61288,-0.287292,0.573669,0.461243,0.987808,-0.176272,-0.190433,-23.572322,-61.041867,22.372594
1784315551.7601,12:12:31.760,23,false,0.612983,-0.287292,0.573608,0.461182,1.002945,-0.169924,-0.187015,-23.562843,-61.068756,22.468133
1784315551.7913,12:12:31.791,24,false,0.613087,-0.287292,0.573792,0.460815,0.993668,-0.162112,-0.183108,-23.554312,-60.95837,22.524212
1784315551.8224,12:12:31.822,25,false,0.613076,-0.287048,0.573975,0.460754,0.958022,-0.191897,-0.181643,-23.696172,-61.03847,22.470005
1784315551.8537,12:12:31.853,26,false,0.613133,-0.286926,0.573975,0.460754,0.982925,-0.184085,-0.170413,-23.674308,-61.03579,22.481035
1784315551.8851,12:12:31.885,27,false,0.613362,-0.286682,0.574097,0.460449,0.974136,-0.178714,-0.172366,-23.759307,-61.108148,22.535823
1784315551.9164,12:12:31.916,28,false,0.613305,-0.286682,0.574158,0.460449,0.967788,-0.189456,-0.173342,-23.761037,-61.053639,22.510363
1784315551.9477,12:12:31.947,29,false,0.613414,-0.286621,0.574219,0.460266,0.974136,-0.1626,-0.173342,-23.732687,-61.124211,22.592126
1784315551.9791,12:12:31.979,30,false,0.613471,-0.286621,0.574158,0.460266,0.98146,-0.172366,-0.176761,-23.707171,-61.217634,22.531128
1784315552.0104,12:12:32.010,31,false,0.613362,-0.286682,0.574097,0.460449,0.962905,-0.176761,-0.190921,-23.758976,-61.226946,22.47623
1784315552.0416,12:12:32.041,0,false,0.613533,-0.286316,0.574097,0.460449,0.985367,-0.182132,-0.192386,-23.730832,-61.205419,22.486637
1784315552.0727,12:12:32.072,1,false,0.61371,-0.286133,0.574097,0.460327,0.981949,-0.180667,-0.190433,-23.780271,-61.141183,22.496003
1784315552.1039,12:12:32.103,2,false,0.613504,-0.286011,0.57428,0.460449,0.988296,-0.17969,-0.18262,-23.749997,-61.158139,22.549295
1784315552.1351,12:12:32.135,3,false,0.613218,-0.286133,0.57428,0.460754,0.978042,-0.178225,-0.183108,-23.827427,-61.143493,22.372949
1784315552.1662,12:12:32.166,4,false,0.612828,-0.286377,0.57428,0.461121,0.983413,-0.17969,-0.172366,-23.732622,-61.145265,22.244146
1784315552.1974,12:12:32.197,5,false,0.612266,-0.286743,0.574158,0.461792,0.979995,-0.180667,-0.177737,-23.647298,-61.116952,22.128223
1784315552.2285,12:12:32.228,6,false,0.612312,-0.286621,0.574219,0.461731,0.979019,-0.180667,-0.185061,-23.555552,-61.106424,22.2482
1784315552.2598,12:12:32.259,7,false,0.612375,-0.286438,0.574341,0.461609,0.980484,-0.194827,-0.175784,-23.712242,-61.111903,22.266456
1784315552.2912,12:12:32.291,8,false,0.612329,-0.28656,0.57428,0.46167,0.979995,-0.178714,-0.178714,-23.718679,-61.206557,22.118394
1784315552.3225,12:12:32.322,9,false,0.612502,-0.286438,0.574402,0.461365,0.983902,-0.178225,-0.172854,-23.754379,-61.127253,22.254308
1784315552.3539,12:12:32.353,10,false,0.612473,-0.286377,0.574463,0.461365,0.972671,-0.181155,-0.175784,-23.696787,-61.055879,22.316815
1784315552.3852,12:12:32.385,11,false,0.61241,-0.286438,0.574402,0.461487,0.978042,-0.178714,-0.176761,-23.689815,-61.186043,22.298302
1784315552.4165,12:12:32.416,12,false,0.612335,-0.286499,0.574402,0.461548,0.976577,-0.187503,-0.178714,-23.728402,-61.258329,22.311548
1784315552.4479,12:12:32.447,13,false,0.612065,-0.286682,0.574402,0.461792,0.972671,-0.186526,-0.16553,-23.76313,-61.248618,22.428146
1784315552.479,12:12:32.479,14,false,0.612295,-0.286438,0.574524,0.461487,0.975601,-0.18262,-0.166995,-23.80934,-61.299692,22.383546
1784315552.5101,12:12:32.510,15,false,0.612403,-0.286255,0.574402,0.461609,0.966812,-0.192874,-0.181643,-23.835974,-61.330706,22.313499
1784315552.5413,12:12:32.541,16,false,0.612426,-0.286255,0.57428,0.461731,1.001968,-0.174807,-0.170413,-23.725361,-61.298803,22.235502
1784315552.5724,12:12:32.572,17,false,0.612208,-0.286499,0.574341,0.461792,0.985855,-0.180667,-0.182132,-23.775347,-61.299997,22.210167
1784315552.6036,12:12:32.603,18,false,0.611737,-0.286255,0.574768,0.462036,0.978531,-0.192386,-0.176761,-23.835288,-61.13658,22.202318
1784315552.6349,12:12:32.634,19,false,0.611507,-0.285889,0.575195,0.462036,0.984878,-0.18262,-0.167971,-23.859328,-61.064274,22.150394
1784315552.6662,12:12:32.666,20,false,0.611397,-0.28595,0.575134,0.462219,0.970718,-0.187015,-0.172854,-23.836102,-61.148737,22.073754
1784315552.6976,12:12:32.697,21,false,0.611323,-0.286011,0.575134,0.46228,0.971206,-0.176272,-0.171878,-23.815199,-61.269615,22.004778
1784315552.7289,12:12:32.728,22,false,0.611185,-0.286255,0.575012,0.462463,0.973159,-0.175784,-0.172366,-23.81134,-61.243821,22.002515
1784315552.7603,12:12:32.760,23,false,0.611081,-0.286255,0.575073,0.462524,0.990249,-0.194827,-0.164553,-23.792913,-61.415006,22.090201
1784315552.7916,12:12:32.791,24,false,0.611035,-0.286133,0.575134,0.462585,0.963394,-0.196292,-0.175784,-23.731467,-61.569073,22.199026
1784315552.8229,12:12:32.822,25,false,0.610913,-0.286072,0.575195,0.462708,0.980972,-0.192386,-0.173342,-23.646258,-61.498379,22.087615
1784315552.8541,12:12:32.854,26,false,0.610769,-0.286499,0.57489,0.463013,0.977066,-0.193362,-0.183108,-23.599478,-61.509524,22.166791
1784315552.8852,12:12:32.885,27,false,0.610946,-0.286682,0.574463,0.463196,0.980484,-0.170413,-0.171878,-23.557375,-61.474693,22.118419
1784315552.9164,12:12:32.916,28,false,0.610876,-0.286926,0.574219,0.46344,0.973159,-0.189456,-0.164065,-23.609206,-61.488206,22.074884
1784315552.9475,12:12:32.947,29,false,0.611153,-0.28772,0.573181,0.463867,0.969253,-0.187991,-0.179202,-23.536223,-61.530276,22.080564
1784315552.9786,12:12:32.978,30,false,0.612082,-0.288635,0.571777,0.463806,0.990738,-0.197757,-0.18262,-23.560262,-61.553185,21.995953
1784315553.01,12:12:33.010,31,false,0.612567,-0.289734,0.570801,0.463684,0.975113,-0.178225,-0.171878,-23.492173,-61.409311,21.859988
1784315553.0413,12:12:33.041,0,false,0.613527,-0.291992,0.568665,0.463623,0.974624,-0.18262,-0.186526,-23.580432,-61.45927,21.73762
1784315553.0726,12:12:33.072,1,false,0.613607,-0.292786,0.567871,0.463989,0.986343,-0.143557,-0.192874,-23.510327,-61.549095,21.627488
1784315553.104,12:12:33.104,2,false,0.614336,-0.295349,0.564697,0.465271,0.999527,-0.161135,-0.189456,-23.507047,-61.52526,21.588184
1784315553.1353,12:12:33.135,3,false,0.614549,-0.297668,0.562134,0.466614,1.003922,-0.160159,-0.193851,-23.683542,-61.42904,21.50795
1784315553.1665,12:12:33.166,4,false,0.614234,-0.301941,0.557434,0.46991,0.968276,-0.158206,-0.186526,-23.692848,-61.342442,21.510508
1784315553.1976,12:12:33.197,5,false,0.6138,-0.305969,0.553223,0.472839,0.96144,-0.139162,-0.200687,-23.596547,-61.264503,21.557672
1784315553.2287,12:12:33.228,6,false,0.612898,-0.310364,0.548401,0.476746,0.962417,-0.135256,-0.214847,-23.584646,-60.940144,21.420673
1784315553.2599,12:12:33.259,7,false,0.610491,-0.317322,0.541016,0.483643,0.986831,-0.119142,-0.221195,-23.708519,-60.737943,21.267467
1784315553.291,12:12:33.291,8,false,0.608326,-0.322571,0.535828,0.488647,0.979507,-0.148928,-0.223148,-23.760189,-60.5111,21.039858
1784315553.3222,12:12:33.322,9,false,0.606628,-0.326599,0.530701,0.493652,0.974136,-0.151369,-0.247074,-23.687062,-60.306942,20.730333
1784315553.3533,12:12:33.353,10,false,0.603163,-0.334045,0.522278,0.501831,1.008804,-0.107912,-0.271489,-23.531524,-60.063385,20.33213
1784315553.3846,12:12:33.384,11,false,0.600652,-0.3396,0.516907,0.506653,1.003433,-0.109377,-0.248051,-23.421448,-59.814275,20.048517
1784315553.416,12:12:33.416,12,false,0.595891,-0.347046,0.509766,0.514404,0.956558,-0.134279,-0.253422,-23.307426,-59.500354,19.838126
1784315553.4473,12:12:33.447,13,false,0.594306,-0.349792,0.507263,0.516846,0.963882,-0.137209,-0.267094,-23.354344,-59.143055,19.439421
1784315553.4787,12:12:33.478,14,false,0.589707,-0.358337,0.500427,0.522888,0.995621,-0.036133,-0.283207,-23.381616,-58.761671,19.125447
1784315553.51,12:12:33.510,15,false,0.583476,-0.366638,0.49469,0.529541,0.979019,0.001465,-0.273442,-23.346346,-58.403471,18.872779
1784315553.5413,12:12:33.541,16,false,0.573739,-0.375305,0.488525,0.539734,0.946304,-0.138674,-0.264164,-23.389373,-58.081092,18.525747
1784315553.5725,12:12:33.572,17,false,0.567344,-0.380066,0.484009,0.54718,0.969741,-0.110842,-0.278325,-23.24865,-57.671319,18.258279
1784315553.6036,12:12:33.603,18,false,0.563102,-0.383911,0.48114,0.551392,1.01857,-0.091798,-0.27393,-23.226677,-57.272616,17.972697
1784315553.6347,12:12:33.634,19,false,0.555074,-0.389771,0.478149,0.557983,0.995621,-0.09131,-0.264164,-23.176993,-56.913784,17.655858
1784315553.6659,12:12:33.665,20,false,0.549244,-0.394043,0.477234,0.561523,0.97023,-0.058106,-0.251957,-23.207047,-56.366527,17.370702
1784315553.697,12:12:33.697,21,false,0.539438,-0.405457,0.472778,0.56665,1.034195,0.093263,-0.230961,-23.114464,-55.918857,17.114062
1784315553.7284,12:12:33.728,22,false,0.529569,-0.414185,0.46698,0.574402,0.872572,-0.054688,-0.234867,-23.150771,-55.545862,16.838225
1784315553.7597,12:12:33.759,23,false,0.520192,-0.419739,0.460632,0.583984,0.883803,-0.166506,-0.246098,-23.27317,-55.22512,16.649786
1784315553.791,12:12:33.791,24,false,0.504935,-0.432922,0.44342,0.60083,0.95021,-0.187503,-0.281254,-23.099206,-54.742053,16.390469
1784315553.8224,12:12:33.822,25,false,0.494918,-0.440735,0.431152,0.612305,0.964858,-0.171389,-0.273442,-23.107131,-54.172708,16.06736
1784315553.8537,12:12:33.853,26,false,0.488532,-0.445251,0.422363,0.620239,0.985367,-0.154788,-0.273442,-23.09931,-53.645343,15.761608
1784315553.8851,12:12:33.885,27,false,0.481948,-0.449097,0.412842,0.628967,0.9673,-0.145022,-0.284672,-23.09227,-53.021177,15.44157
1784315553.9164,12:12:33.916,28,false,0.475157,-0.452759,0.406189,0.635803,0.981949,-0.099611,-0.304204,-23.160704,-52.35475,15.123628
1784315553.9475,12:12:33.947,29,false,0.467234,-0.459045,0.399048,0.641663,0.991226,-0.072755,-0.29102,-23.252202,-51.620381,14.822526
1784315553.9787,12:12:33.978,30,false,0.462854,-0.46167,0.395996,0.644836,0.9673,-0.145022,-0.280766,-23.14015,-50.959449,14.626304
1784315554.0098,12:12:34.009,31,false,0.459169,-0.460571,0.396484,0.647949,1.001968,-0.213382,-0.279789,-23.039304,-50.409472,14.509519
1784315554.041,12:12:34.041,0,false,0.461087,-0.457275,0.401428,0.645874,1.0215,-0.154788,-0.270512,-23.113034,-49.959354,14.210013
1784315554.0721,12:12:34.072,1,false,0.464802,-0.454346,0.408813,0.640625,0.983902,-0.184573,-0.249516,-23.164438,-49.434617,14.134858
1784315554.1032,12:12:34.103,2,false,0.469071,-0.450806,0.41449,0.636353,0.959976,-0.189944,-0.251957,-23.270516,-48.977308,13.977495
1784315554.1344,12:12:34.134,3,false,0.474806,-0.446594,0.420776,0.63092,0.972671,-0.171389,-0.252445,-23.45571,-48.476007,13.895683
1784315554.1657,12:12:34.165,4,false,0.484617,-0.437561,0.432983,0.62146,0.959976,-0.224125,-0.235843,-23.517708,-48.279051,13.792145
1784315554.197,12:12:34.197,5,false,0.492516,-0.429138,0.443176,0.613892,0.971206,-0.242191,-0.246586,-23.51369,-47.937298,13.609238
1784315554.2284,12:12:34.228,6,false,0.502192,-0.417664,0.456177,0.60437,0.995621,-0.295415,-0.27686,-23.584843,-47.599813,13.444622
1784315554.2597,12:12:34.259,7,false,0.521201,-0.39447,0.483276,0.582397,1.006363,-0.354498,-0.298833,-23.633927,-47.490476,13.446005
1784315554.2911,12:12:34.291,8,false,0.536098,-0.378235,0.504822,0.560974,1.024918,-0.318364,-0.285161,-23.648195,-47.481797,13.581835
1784315554.3222,12:12:34.322,9,false,0.556765,-0.353027,0.538269,0.525024,0.990738,-0.243656,-0.271,-23.765714,-47.862784,13.793805
1784315554.3535,12:12:34.353,10,false,0.562815,-0.344543,0.549133,0.512817,0.988785,-0.175296,-0.228031,-23.946249,-48.130904,13.984578
1784315554.3847,12:12:34.384,11,false,0.581013,-0.319336,0.580505,0.472717,0.968765,-0.119631,-0.153323,-24.078823,-48.686243,14.425442
1784315554.4158,12:12:34.415,12,false,0.593397,-0.302246,0.60553,0.43573,0.990738,0.004395,-0.083497,-24.332725,-49.171094,14.971759
1784315554.447,12:12:34.447,13,false,0.597864,-0.296082,0.61792,0.416016,0.95314,-0.01416,-0.062013,-24.621051,-49.727091,15.493352
1784315554.4781,12:12:34.478,14,false,0.603836,-0.287537,0.63031,0.394226,0.938003,-0.079591,-0.026856,-24.790822,-50.242441,16.366539
1784315554.5094,12:12:34.509,15,false,0.605956,-0.284485,0.633179,0.38855,0.949722,-0.07715,-0.009277,-25.033339,-50.736165,17.062684
1784315554.5408,12:12:34.540,16,false,0.611813,-0.275635,0.639526,0.375122,0.980972,-0.102541,0.003418,-25.281512,-51.210423,17.793892
1784315554.5721,12:12:34.572,17,false,0.615025,-0.270081,0.642395,0.368958,0.985367,-0.096681,-0.012207,-25.504868,-51.637256,18.272533
1784315554.6035,12:12:34.603,18,false,0.618438,-0.265442,0.644043,0.363708,0.966323,-0.098146,-0.022461,-25.556349,-51.946637,18.748171
1784315554.6348,12:12:34.634,19,false,0.620824,-0.263672,0.643127,0.362549,0.989761,-0.159182,-0.045899,-25.70736,-52.389571,19.191199
1784315554.6659,12:12:34.665,20,false,0.623364,-0.261475,0.642151,0.361511,1.017594,-0.156741,-0.045411,-25.723638,-52.758305,19.440387
1784315554.6971,12:12:34.697,21,false,0.626615,-0.256836,0.641785,0.359863,1.005386,-0.132815,-0.053712,-25.753243,-53.209795,19.829147
1784315554.7282,12:12:34.728,22,false,0.627453,-0.25531,0.641541,0.359924,0.981949,-0.134768,-0.043946,-25.959333,-53.526414,20.343524
1784315554.7593,12:12:34.759,23,false,0.627511,-0.25531,0.640625,0.36145,0.997574,-0.128908,-0.054688,-25.965368,-53.901094,20.641971
1784315554.7905,12:12:34.790,24,false,0.627102,-0.256714,0.638733,0.364502,1.001968,-0.129885,-0.050782,-26.000708,-54.268214,20.970388
1784315554.8216,12:12:34.821,25,false,0.626326,-0.258606,0.637085,0.367371,1.006851,-0.151858,-0.054688,-26.062421,-54.628529,21.011749
1784315554.8528,12:12:34.852,26,false,0.62546,-0.261658,0.634277,0.371521,1.003922,-0.144045,-0.061524,-25.968424,-54.878043,21.228419
1784315554.8839,12:12:34.883,27,false,0.625201,-0.262634,0.633484,0.37262,0.997086,-0.145022,-0.062013,-25.97355,-55.11756,21.513146
1784315554.9152,12:12:34.915,28,false,0.624722,-0.265808,0.631042,0.375305,0.982437,-0.137697,-0.079591,-25.873486,-55.377987,21.694631
1784315554.9466,12:12:34.946,29,false,0.624592,-0.267883,0.629456,0.376709,0.99855,-0.139651,-0.070802,-25.888106,-55.537602,21.932736
1784315554.9779,12:12:34.977,30,false,0.624166,-0.269897,0.628174,0.378113,0.99855,-0.126955,-0.069337,-26.020895,-55.860701,22.102169
1784315555.0093,12:12:35.009,31,false,0.623587,-0.271057,0.627625,0.37915,0.991714,-0.138674,-0.053223,-26.095543,-55.972045,22.224752
1784315555.0406,12:12:35.040,0,false,0.623477,-0.272034,0.626831,0.379944,0.97023,-0.134279,-0.049805,-26.087957,-56.147023,22.335076
1784315555.0719,12:12:35.071,1,false,0.623561,-0.273804,0.625122,0.381348,1.020035,-0.118166,-0.061524,-26.27553,-56.259642,22.359598
1784315555.1033,12:12:35.103,2,false,0.623532,-0.274841,0.624023,0.382446,1.010758,-0.113771,-0.071778,-26.234991,-56.465676,22.546161
1784315555.1344,12:12:35.134,3,false,0.623391,-0.275757,0.622559,0.384399,0.997086,-0.158206,-0.072755,-26.168599,-56.501568,22.534621
1784315555.1655,12:12:35.165,4,false,0.624036,-0.276611,0.621155,0.38501,0.987808,-0.140627,-0.061524,-26.273338,-56.653502,22.539189
1784315555.1967,12:12:35.196,5,false,0.62509,-0.277466,0.619446,0.385437,0.995132,-0.145998,-0.078126,-26.382557,-56.700519,22.677885
1784315555.2278,12:12:35.227,6,false,0.626908,-0.278564,0.616577,0.386292,0.968765,-0.137209,-0.072267,-26.331316,-56.922281,22.727942
1784315555.2592,12:12:35.259,7,false,0.629061,-0.279541,0.614014,0.386169,0.999039,-0.116701,-0.083009,-26.285199,-56.94242,22.847762
1784315555.2905,12:12:35.290,8,false,0.630754,-0.280884,0.611389,0.386597,1.025406,-0.081544,-0.093751,-26.213786,-57.005407,22.776154
1784315555.3218,12:12:35.321,9,false,0.632265,-0.282532,0.608093,0.388123,1.024918,-0.084962,-0.123537,-26.194376,-57.151818,22.861246
1784315555.3532,12:12:35.353,10,false,0.632266,-0.283325,0.606628,0.389832,1.015152,-0.100587,-0.124025,-26.176907,-57.208819,23.012597
1784315555.3845,12:12:35.384,11,false,0.630275,-0.283997,0.60614,0.393311,1.022965,-0.074708,-0.121096,-26.206046,-57.155443,23.044137
1784315555.4159,12:12:35.415,12,false,0.629189,-0.283936,0.606384,0.394714,0.979019,-0.109865,-0.104494,-26.112641,-57.286851,22.997753
1784315555.4472,12:12:35.447,13,false,0.625156,-0.284363,0.607117,0.399658,0.973159,-0.151858,-0.098146,-25.953807,-57.584564,23.030777
1784315555.4785,12:12:35.478,14,false,0.62317,-0.284973,0.607422,0.401855,0.980484,-0.170413,-0.090822,-26.035164,-57.59829,22.98573
1784315555.5097,12:12:35.509,15,false,0.62159,-0.286438,0.6073,0.403442,1.003922,-0.171878,-0.090822,-26.063523,-57.67046,22.975094
1784315555.5408,12:12:35.540,16,false,0.620812,-0.287781,0.607056,0.404053,0.974624,-0.174807,-0.081056,-26.044186,-57.735412,22.890753
1784315555.572,12:12:35.572,17,false,0.620497,-0.289612,0.606628,0.40387,1.009781,-0.169924,-0.083497,-26.026782,-57.823776,22.889616
1784315555.6031,12:12:35.603,18,false,0.620423,-0.291931,0.606201,0.402954,1.005875,-0.14551,-0.070314,-25.98121,-57.933212,22.993269
1784315555.6342,12:12:35.634,19,false,0.620686,-0.292847,0.605774,0.402527,0.96437,-0.142092,-0.07129,-25.895335,-58.031705,23.041695
1784315555.6656,12:12:35.665,20,false,0.621972,-0.293518,0.604736,0.401611,0.983902,-0.127932,-0.062989,-26.0274,-57.925948,23.100233
1784315555.6969,12:12:35.696,21,false,0.624736,-0.294128,0.602112,0.400818,0.988296,-0.100099,-0.07715,-26.026629,-57.980305,23.123009
1784315555.7282,12:12:35.728,22,false,0.626698,-0.293945,0.600037,0.401001,0.979995,-0.122072,-0.088869,-26.01098,-58.11895,23.203322
1784315555.7596,12:12:35.759,23,false,0.630472,-0.292664,0.596619,0.401123,1.002457,-0.112306,-0.099123,-26.056712,-58.154007,23.245697
1784315555.7909,12:12:35.790,24,false,0.631536,-0.291687,0.595642,0.401611,0.987808,-0.121096,-0.118166,-26.053009,-58.110789,23.179157
1784315555.8223,12:12:35.822,25,false,0.635452,-0.288879,0.591553,0.403503,1.003922,-0.099611,-0.129885,-26.004815,-58.086847,23.149179
1784315555.8536,12:12:35.853,26,false,0.640129,-0.288574,0.585754,0.404785,1.019547,-0.085939,-0.180179,-25.976395,-58.125114,22.957707
1784315555.8847,12:12:35.884,27,false,0.64267,-0.288574,0.582031,0.406128,1.006851,-0.104494,-0.192874,-25.741462,-58.099739,22.770428
1784315555.9159,12:12:35.915,28,false,0.644581,-0.287903,0.578918,0.40802,1.045914,-0.087404,-0.201175,-25.694515,-58.017087,22.616831
1784315555.947,12:12:35.947,29,false,0.644336,-0.287781,0.578735,0.408752,1.008316,-0.059571,-0.197269,-25.652263,-57.942699,22.478593
1784315555.9782,12:12:35.978,30,false,0.641237,-0.286682,0.580383,0.412048,0.929213,-0.135744,-0.160647,-25.584328,-58.025289,22.354179
1784315556.0093,12:12:36.009,31,false,0.640168,-0.286377,0.580933,0.413147,0.951186,-0.136721,-0.158206,-25.627864,-58.21925,22.346884
1784315556.0406,12:12:36.040,0,false,0.639891,-0.286804,0.580505,0.413879,1.011734,-0.120607,-0.161135,-25.637138,-58.244277,22.265548
1784315556.072,12:12:36.072,1,false,0.63959,-0.287598,0.579834,0.414734,1.026383,-0.087404,-0.157229,-25.720254,-58.446248,22.237208
1784315556.1033,12:12:36.103,2,false,0.639028,-0.28833,0.579041,0.416199,1.012711,-0.087892,-0.177737,-25.64552,-58.523344,22.316379
1784315556.1347,12:12:36.134,3,false,0.637441,-0.287903,0.578003,0.420349,0.971206,-0.12256,-0.183597,-25.38386,-58.517962,22.208187
1784315556.166,12:12:36.166,4,false,0.636751,-0.287415,0.577271,0.422729,0.975601,-0.126467,-0.18262,-25.357719,-58.557979,22.200537
1784315556.1973,12:12:36.197,5,false,0.636564,-0.286926,0.576599,0.424255,0.981949,-0.12549,-0.189944,-25.139793,-58.638856,22.118882
1784315556.2287,12:12:36.228,6,false,0.636306,-0.28656,0.575806,0.425964,1.009781,-0.117678,-0.190433,-25.138059,-58.666784,22.015486
1784315556.2598,12:12:36.259,7,false,0.636022,-0.28656,0.575623,0.426636,0.991226,-0.116213,-0.198245,-25.106591,-58.557335,22.101875
1784315556.2909,12:12:36.290,8,false,0.634373,-0.287598,0.575928,0.427979,0.995132,-0.132815,-0.173831,-25.153038,-58.742953,22.059994
1784315556.3221,12:12:36.322,9,false,0.633628,-0.288086,0.57605,0.428589,0.99855,-0.104494,-0.176761,-25.120072,-58.700656,22.067163
1784315556.3532,12:12:36.353,10,false,0.631297,-0.289917,0.576416,0.430298,0.968765,-0.107424,-0.159182,-25.180126,-58.677542,21.983893
1784315556.3846,12:12:36.384,11,false,0.629674,-0.291809,0.57605,0.431885,0.972671,-0.120119,-0.154788,-25.159405,-58.836186,22.043533
1784315556.4159,12:12:36.415,12,false,0.627772,-0.294739,0.57489,0.434204,0.969253,-0.117678,-0.160159,-25.15571,-58.784566,22.082256
1784315556.4472,12:12:36.447,13,false,0.626432,-0.296753,0.573975,0.435974,0.993179,-0.12256,-0.154299,-25.167338,-58.782969,21.997476
1784315556.4786,12:12:36.478,14,false,0.625098,-0.298462,0.573242,0.437683,0.987808,-0.12256,-0.159182,-25.132942,-58.871255,21.966036
1784315556.5099,12:12:36.509,15,false,0.623068,-0.300354,0.572266,0.440552,0.999527,-0.136233,-0.162112,-25.146847,-58.860988,21.922785
1784315556.5413,12:12:36.541,16,false,0.621558,-0.301514,0.571838,0.442444,1.010758,-0.137209,-0.157229,-25.039731,-59.016242,21.838998
1784315556.5726,12:12:36.572,17,false,0.619322,-0.302673,0.571899,0.444702,1.001968,-0.144533,-0.177249,-24.973234,-59.081201,21.688821
1784315556.6039,12:12:36.603,18,false,0.617756,-0.303284,0.57251,0.445679,0.989273,-0.151369,-0.1626,-24.973202,-59.020033,21.748061
1784315556.6351,12:12:36.635,19,false,0.616167,-0.303772,0.573486,0.446289,0.995132,-0.156252,-0.16553,-24.973173,-58.92012,21.726608
1784315556.6662,12:12:36.666,20,false,0.61479,-0.304382,0.574829,0.446045,0.978531,-0.144533,-0.138674,-24.958194,-58.890014,21.841885
1784315556.6974,12:12:36.697,21,false,0.614378,-0.304932,0.575073,0.445923,0.9673,-0.138186,-0.143069,-24.914804,-59.02741,21.885819
1784315556.7285,12:12:36.728,22,false,0.614037,-0.305542,0.574829,0.446289,0.981949,-0.129885,-0.129397,-25.0552,-58.986575,21.910406
1784315556.7596,12:12:36.759,23,false,0.612907,-0.306824,0.573975,0.448059,0.98439,-0.127932,-0.149905,-25.046971,-59.039547,21.797949
1784315556.791,12:12:36.791,24,false,0.612099,-0.307678,0.573425,0.44928,1.000504,-0.151858,-0.159182,-24.994704,-59.087221,21.846277
1784315556.8223,12:12:36.822,25,false,0.611276,-0.308228,0.573242,0.450256,1.000992,-0.150393,-0.160159,-24.947664,-59.130128,21.994448
1784315556.8536,12:12:36.853,26,false,0.61108,-0.30835,0.573242,0.450439,0.993179,-0.154299,-0.161624,-24.950189,-59.064067,21.993218
1784315556.885,12:12:36.885,27,false,0.610452,-0.30896,0.573486,0.450562,1.000015,-0.134768,-0.147463,-24.862739,-59.124243,21.962203
1784315556.9163,12:12:36.916,28,false,0.609983,-0.309875,0.57373,0.450256,0.993668,-0.146487,-0.157229,-24.784033,-59.043817,21.979151
1784315556.9475,12:12:36.947,29,false,0.609017,-0.310974,0.574402,0.449951,1.008316,-0.134768,-0.138674,-24.802921,-59.061156,21.85982
1784315556.9786,12:12:36.978,30,false,0.607884,-0.311646,0.574951,0.450317,0.997574,-0.151858,-0.127932,-24.730198,-59.121623,21.842145
1784315557.0097,12:12:37.009,31,false,0.60729,-0.311829,0.575623,0.450134,0.977066,-0.143069,-0.125002,-24.754469,-59.131182,21.99073
1784315557.0409,12:12:37.040,0,false,0.607058,-0.312195,0.57605,0.449646,0.979507,-0.155764,-0.127932,-24.76136,-59.050062,22.034733
1784315557.072,12:12:37.072,1,false,0.607537,-0.312317,0.57605,0.448914,0.992691,-0.143557,-0.136233,-24.782516,-59.066777,22.134151
1784315557.1032,12:12:37.103,2,false,0.608012,-0.312683,0.576111,0.447937,0.999039,-0.140139,-0.134279,-24.786602,-59.022005,22.268489
1784315557.1343,12:12:37.134,3,false,0.608419,-0.312439,0.576477,0.447083,0.98732,-0.137697,-0.138186,-24.790279,-59.086388,22.075363
1784315557.1656,12:12:37.165,4,false,0.608424,-0.312378,0.576599,0.44696,0.991226,-0.136721,-0.130373,-24.808543,-59.024701,22.170718
1784315557.197,12:12:37.197,5,false,0.608617,-0.312439,0.576599,0.446655,0.99855,-0.125978,-0.138186,-24.914703,-59.088814,22.121953
1784315557.2283,12:12:37.228,6,false,0.608733,-0.3125,0.576538,0.446533,0.988785,-0.145022,-0.127443,-24.845755,-58.982023,22.167788
1784315557.2597,12:12:37.259,7,false,0.609202,-0.312805,0.576538,0.445679,0.995621,-0.157717,-0.129885,-24.843517,-59.020495,22.194086
1784315557.291,12:12:37.291,8,false,0.61026,-0.312012,0.577026,0.444153,0.989761,-0.150393,-0.137209,-24.871411,-59.010259,22.262615
1784315557.3223,12:12:37.322,9,false,0.610975,-0.311462,0.577271,0.443237,0.989761,-0.156252,-0.13135,-24.941377,-58.821601,22.144845
1784315557.3537,12:12:37.353,10,false,0.612609,-0.310486,0.577515,0.441345,0.980972,-0.144533,-0.132326,-25.0193,-58.89107,22.233252
1784315557.3848,12:12:37.384,11,false,0.61319,-0.31012,0.577515,0.440796,0.961929,-0.140627,-0.133303,-25.074477,-58.893776,22.148326
1784315557.4159,12:12:37.415,12,false,0.615205,-0.309082,0.576904,0.439514,0.98146,-0.124025,-0.146975,-25.154044,-58.896212,22.17657
1784315557.4471,12:12:37.447,13,false,0.616818,-0.308533,0.576172,0.438599,0.999527,-0.12256,-0.144533,-25.225654,-58.76382,22.24685
1784315557.4782,12:12:37.478,14,false,0.618908,-0.308044,0.575073,0.437439,1.000992,-0.135256,-0.15967,-25.334965,-58.674575,22.235334
1784315557.5096,12:12:37.509,15,false,0.62005,-0.307983,0.574524,0.436584,1.002945,-0.100099,-0.158206,-25.328667,-58.609208,22.210015
1784315557.5409,12:12:37.540,16,false,0.62059,-0.308472,0.574097,0.436035,1.006363,-0.118654,-0.169436,-25.427677,-58.6401,22.127413
1784315557.5722,12:12:37.572,17,false,0.620916,-0.309326,0.573608,0.435608,0.986343,-0.100099,-0.147463,-25.322385,-58.563227,22.20261
1784315557.6036,12:12:37.603,18,false,0.620978,-0.309998,0.573364,0.435364,0.96144,-0.1084,-0.147463,-25.317346,-58.733302,22.135702
1784315557.6349,12:12:37.634,19,false,0.621264,-0.310669,0.572876,0.43512,0.974136,-0.117189,-0.147951,-25.372626,-58.721878,22.060531
1784315557.6663,12:12:37.666,20,false,0.622684,-0.311157,0.571716,0.434265,0.988296,-0.116213,-0.135744,-25.407424,-58.577011,21.977923
1784315557.6976,12:12:37.697,21,false,0.624114,-0.311218,0.570679,0.433533,0.971206,-0.117189,-0.14844,-25.498558,-58.611124,21.91853
1784315557.7287,12:12:37.728,22,false,0.627211,-0.310242,0.56897,0.432007,0.980972,-0.119631,-0.16846,-25.535716,-58.462379,21.969753
1784315557.7599,12:12:37.759,23,false,0.628319,-0.309631,0.568542,0.431396,1.017105,-0.109377,-0.166018,-25.479436,-58.388324,21.970993
1784315557.791,12:12:37.791,24,false,0.630507,-0.307861,0.568237,0.429871,1.00441,-0.093263,-0.161135,-25.4886,-58.157182,21.762754
1784315557.8222,12:12:37.822,25,false,0.631264,-0.306396,0.568604,0.429321,0.999527,-0.098634,-0.163577,-25.466939,-58.218323,21.784693
1784315557.8533,12:12:37.853,26,false,0.632063,-0.303894,0.569519,0.428711,0.998062,-0.088869,-0.179202,-25.477352,-58.108859,21.669854
1784315557.8844,12:12:37.884,27,false,0.632182,-0.303101,0.569763,0.428772,0.986831,-0.100099,-0.172366,-25.516631,-58.159879,21.611361
1784315557.9156,12:12:37.915,28,false,0.632757,-0.302734,0.569641,0.428345,0.977554,-0.093263,-0.168948,-25.477213,-58.205797,21.618532
1784315557.9469,12:12:37.946,29,false,0.633705,-0.302734,0.569092,0.427673,0.986831,-0.109865,-0.1626,-25.41183,-58.142446,21.624985
1784315557.9782,12:12:37.978,30,false,0.634147,-0.302612,0.568665,0.427673,0.979507,-0.113771,-0.163577,-25.547384,-58.205061,21.690609
1784315558.0096,12:12:38.009,31,false,0.634779,-0.302002,0.568237,0.427734,0.99855,-0.117189,-0.167971,-25.445076,-58.186645,21.674902
1784315558.0407,12:12:38.040,0,false,0.63495,-0.301758,0.568176,0.427734,0.993668,-0.119142,-0.164065,-25.382906,-58.229887,21.72058
1784315558.0721,12:12:38.072,1,false,0.635408,-0.301514,0.568115,0.427307,0.981949,-0.124514,-0.172854,-25.326953,-58.238896,21.76169
1784315558.1032,12:12:38.103,2,false,0.636735,-0.301819,0.567017,0.426575,1.012222,-0.100587,-0.17969,-25.381272,-58.172236,21.619244
1784315558.1343,12:12:38.134,3,false,0.637604,-0.302307,0.566101,0.426147,1.016129,-0.080079,-0.180179,-25.489975,-58.157102,21.610673
1784315558.1655,12:12:38.165,4,false,0.637847,-0.303162,0.565186,0.426392,0.993668,-0.081544,-0.174807,-25.453223,-58.278067,21.662774
1784315558.1966,12:12:38.196,5,false,0.637718,-0.304871,0.563904,0.427063,1.00148,-0.093263,-0.17969,-25.360331,-58.147674,21.724619
1784315558.2278,12:12:38.227,6,false,0.637608,-0.305908,0.563049,0.427612,1.002945,-0.084474,-0.191897,-25.261774,-58.045274,21.690556
1784315558.2589,12:12:38.258,7,false,0.637271,-0.307312,0.561829,0.428711,0.990249,-0.090333,-0.174807,-25.367472,-58.102653,21.629992
1784315558.2902,12:12:38.290,8,false,0.637124,-0.307861,0.561462,0.429016,0.978531,-0.092287,-0.176761,-25.342971,-58.124386,21.6353
1784315558.3216,12:12:38.321,9,false,0.637001,-0.308838,0.560364,0.429932,0.972183,-0.094728,-0.167483,-25.320919,-57.994407,21.684939
1784315558.3529,12:12:38.352,10,false,0.637355,-0.30896,0.559753,0.430115,0.992203,-0.086427,-0.184573,-25.301072,-58.08678,21.729613
1784315558.3843,12:12:38.384,11,false,0.638062,-0.30835,0.559143,0.430298,1.018082,-0.078614,-0.192874,-25.253303,-57.840931,21.769821
1784315558.4156,12:12:38.415,12,false,0.638222,-0.307678,0.559143,0.430542,1.006851,-0.088869,-0.184085,-25.300033,-57.90379,21.671422
1784315558.4469,12:12:38.446,13,false,0.637643,-0.307312,0.559204,0.43158,1.011246,-0.078126,-0.203128,-25.132737,-57.87064,21.56791
1784315558.4783,12:12:38.478,14,false,0.636515,-0.306519,0.559509,0.433411,0.971695,-0.092775,-0.207523,-25.191524,-57.960435,21.489703
1784315558.5094,12:12:38.509,15,false,0.635824,-0.306458,0.55957,0.434387,0.988296,-0.102052,-0.194339,-25.199571,-58.086113,21.494086
1784315558.5405,12:12:38.540,16,false,0.635332,-0.306885,0.559326,0.43512,0.98732,-0.116213,-0.201663,-25.266628,-58.1095,21.453169
1784315558.5717,12:12:38.571,17,false,0.63488,-0.307251,0.559021,0.435913,0.998062,-0.097169,-0.189944,-25.252211,-58.130548,21.446252
1784315558.6028,12:12:38.602,18,false,0.634558,-0.307617,0.558899,0.436279,0.990249,-0.1084,-0.189456,-25.209327,-58.209307,21.514795
1784315558.634,12:12:38.634,19,false,0.633772,-0.308472,0.559082,0.436584,0.993179,-0.09131,-0.187015,-25.110917,-58.235328,21.441899
1784315558.6651,12:12:38.665,20,false,0.633372,-0.309143,0.559021,0.436768,0.980484,-0.111818,-0.183108,-25.007394,-58.243793,21.540786
1784315558.6964,12:12:38.696,21,false,0.632924,-0.310303,0.558838,0.436829,0.990249,-0.106447,-0.16846,-25.078715,-58.296274,21.510153
1784315558.7278,12:12:38.727,22,false,0.632172,-0.312683,0.558411,0.436768,0.996597,-0.095216,-0.169436,-24.993366,-58.193968,21.407814
1784315558.7591,12:12:38.759,23,false,0.631487,-0.314148,0.558411,0.436707,0.989761,-0.095705,-0.155276,-25.051136,-58.161708,21.405432
1784315558.7905,12:12:38.790,24,false,0.630418,-0.315674,0.558472,0.437073,0.980484,-0.082521,-0.158206,-25.192853,-58.04295,21.418242
1784315558.8218,12:12:38.821,25,false,0.630192,-0.31604,0.558472,0.437134,0.984878,-0.087892,-0.166506,-25.275536,-58.040746,21.429771
1784315558.8531,12:12:38.853,26,false,0.629713,-0.316833,0.558228,0.437561,0.993668,-0.09424,-0.172366,-25.245274,-58.008854,21.33547
1784315558.8843,12:12:38.884,27,false,0.629463,-0.316895,0.558044,0.43811,0.995132,-0.089357,-0.166506,-25.307761,-57.920336,21.265553
1784315558.9154,12:12:38.915,28,false,0.629661,-0.316162,0.558044,0.438354,1.000015,-0.105959,-0.165042,-25.274276,-57.975255,21.262443
1784315558.9466,12:12:38.946,29,false,0.629767,-0.315674,0.558105,0.438477,1.00734,-0.114748,-0.177249,-25.318909,-57.90505,21.154967
1784315558.9777,12:12:38.977,30,false,0.629745,-0.315247,0.558228,0.43866,1.003922,-0.097658,-0.183108,-25.314218,-57.886728,21.058239
1784315559.0088,12:12:39.008,31,false,0.629929,-0.31488,0.558228,0.43866,0.98439,-0.085939,-0.17969,-25.205318,-57.825377,21.030999
