Timestamp,Local time,Counter,Interpolated,Accelerometer X,Accelerometer Y,Accelerometer Z,Magnetometer X,Magnetometer Y,Magnetometer Z,Quaternion 0,Quaternion 1,Quaternion 2,Quaternion 3
1784738839.8912,09:47:19.891,27,false,0.671317,-0.302185,0.541138,0.406433,0.979507,-0.030762,-0.229496,-23.330258,-61.790225,25.410467
1784738839.9223,09:47:19.922,28,false,0.67016,-0.303955,0.541626,0.406372,0.983413,-0.03418,-0.223148,-23.300123,-61.787139,25.411573
1784738839.9536,09:47:19.953,29,false,0.669753,-0.304443,0.541809,0.406433,0.997086,-0.030762,-0.214847,-23.243095,-61.859131,25.487338
1784738839.985,09:47:19.985,30,false,0.6686,-0.305481,0.542603,0.406494,0.983902,-0.030762,-0.222171,-23.161862,-61.90897,25.64525
1784738840.0163,09:47:20.016,31,false,0.667977,-0.30603,0.542969,0.406616,0.987808,-0.030762,-0.209476,-23.223336,-61.894009,25.697647
1784738840.0477,09:47:20.047,0,false,0.667089,-0.306885,0.543396,0.40686,1.000015,-0.029297,-0.223148,-23.248756,-61.835683,25.670035
1784738840.079,09:47:20.079,1,false,0.6663,-0.307678,0.54364,0.407227,0.988785,-0.026368,-0.21973,-23.241726,-61.693467,25.705
1784738840.1103,09:47:20.110,2,false,0.665666,-0.30835,0.543945,0.407349,0.98439,-0.033204,-0.221195,-23.235399,-61.685103,25.736469
1784738840.1415,09:47:20.141,3,false,0.66442,-0.309875,0.544189,0.407898,0.982925,-0.033204,-0.209476,-23.289519,-61.692529,25.675067
1784738840.1726,09:47:20.172,4,false,0.663469,-0.310974,0.544312,0.408447,0.98732,-0.020508,-0.210941,-23.412997,-61.699213,25.769344
1784738840.2038,09:47:20.203,5,false,0.662444,-0.312195,0.544495,0.408936,0.998062,-0.029786,-0.202152,-23.479266,-61.645413,25.824286
1784738840.2349,09:47:20.234,6,false,0.66073,-0.314087,0.5448,0.409851,0.985855,-0.020508,-0.20264,-23.479093,-61.582039,25.903641
1784738840.266,09:47:20.266,7,false,0.659748,-0.31543,0.544617,0.410645,0.991226,-0.026856,-0.18555,-23.478937,-61.599771,26.034876
1784738840.2972,09:47:20.297,8,false,0.657973,-0.317688,0.544067,0.412476,0.972671,-0.028809,-0.18555,-23.49375,-61.630685,26.182895
1784738840.3285,09:47:20.328,9,false,0.657165,-0.319153,0.543213,0.413757,0.993179,-0.03125,-0.184085,-23.492128,-61.643553,26.286205
1784738840.3599,09:47:20.359,10,false,0.656357,-0.320801,0.542053,0.415283,0.98732,-0.037598,-0.193362,-23.565437,-61.655134,26.244599
1784738840.3912,09:47:20.391,11,false,0.655506,-0.323181,0.539978,0.41748,0.975601,-0.024903,-0.179202,-23.571601,-61.605742,26.252015
1784738840.4225,09:47:20.422,12,false,0.655291,-0.324951,0.538086,0.418884,0.982437,-0.013672,-0.200198,-23.577148,-61.561289,26.079244
1784738840.4539,09:47:20.453,13,false,0.655398,-0.328125,0.534302,0.421082,0.98439,-0.008301,-0.207523,-23.447555,-61.506327,25.953657
1784738840.4852,09:47:20.485,14,false,0.655926,-0.328918,0.53302,0.421265,0.982437,-0.005371,-0.222171,-23.420645,-61.471816,26.064937
1784738840.5164,09:47:20.516,15,false,0.657493,-0.332764,0.528198,0.421875,0.993179,0.011231,-0.23389,-23.441288,-61.515524,25.955734
1784738840.5475,09:47:20.547,16,false,0.658741,-0.336243,0.524475,0.421814,0.979507,0.01416,-0.237308,-23.385097,-61.480093,25.782683
1784738840.5786,09:47:20.578,17,false,0.660708,-0.341553,0.518982,0.421265,0.978042,0.005371,-0.261723,-23.528925,-61.373436,25.59703
1784738840.6098,09:47:20.609,18,false,0.661688,-0.345032,0.515869,0.420715,1.005875,0.028321,-0.254887,-23.553693,-61.26249,25.474803
1784738840.6409,09:47:20.640,19,false,0.662018,-0.348511,0.51355,0.420166,1.00734,0.038575,-0.246586,-23.680661,-61.028055,25.319937
1784738840.672,09:47:20.672,20,false,0.661621,-0.353577,0.511292,0.419312,0.988785,0.046876,-0.232425,-23.750071,-60.787155,25.240373
1784738840.7034,09:47:20.703,21,false,0.660574,-0.3573,0.509705,0.419739,0.98439,0.072267,-0.226078,-23.603187,-60.555392,25.019228
1784738840.7347,09:47:20.734,22,false,0.659296,-0.36084,0.508057,0.420715,0.988785,0.067384,-0.217288,-23.650436,-60.331851,24.865058
1784738840.7661,09:47:20.766,23,false,0.657159,-0.365723,0.505554,0.422852,0.980972,0.07715,-0.220706,-23.8425,-60.190479,24.66649
1784738840.7974,09:47:20.797,24,false,0.655157,-0.369202,0.503418,0.425476,0.979019,0.080079,-0.222171,-23.91068,-60.093152,24.457871
1784738840.8286,09:47:20.828,25,false,0.652338,-0.374268,0.499695,0.429749,0.973159,0.072755,-0.229984,-23.972042,-59.885928,24.344883
1784738840.8598,09:47:20.859,26,false,0.651363,-0.375916,0.498413,0.431274,0.98439,0.056641,-0.238773,-23.99736,-59.819056,24.273102
1784738840.8909,09:47:20.890,27,false,0.648126,-0.380554,0.49469,0.43634,0.98732,0.072755,-0.236332,-24.020146,-59.609333,24.103822
1784738840.9221,09:47:20.922,28,false,0.645883,-0.383423,0.492432,0.439697,0.979019,0.092287,-0.249027,-24.040654,-59.600029,23.95147
1784738840.9532,09:47:20.953,29,false,0.642435,-0.388,0.488403,0.44519,0.968765,0.093751,-0.250004,-23.93948,-59.367347,23.784445
1784738840.9843,09:47:20.984,30,false,0.639749,-0.391113,0.485413,0.449585,0.978531,0.083986,-0.248539,-23.983008,-59.113072,23.574308
1784738841.0155,09:47:21.015,31,false,0.636776,-0.394226,0.482361,0.454346,0.983413,0.065431,-0.263676,-23.962368,-59.003856,23.519768
1784738841.0468,09:47:21.046,0,false,0.632304,-0.398682,0.477722,0.461548,0.967788,0.072755,-0.250492,-23.839115,-58.800884,23.321145
1784738841.0782,09:47:21.078,1,false,0.62928,-0.402283,0.473999,0.46637,0.952651,0.087892,-0.249027,-23.832865,-58.618209,23.037707
1784738841.1095,09:47:21.109,2,false,0.624586,-0.410278,0.464905,0.474792,0.967788,0.105959,-0.243656,-23.692654,-58.364078,22.722797
1784738841.1408,09:47:21.140,3,false,0.621092,-0.416931,0.456238,0.481934,0.94435,0.125978,-0.264652,-23.62628,-58.225084,22.319747
1784738841.1722,09:47:21.172,4,false,0.617322,-0.424133,0.445618,0.490356,0.935073,0.101076,-0.270024,-23.417006,-57.950451,21.98691
1784738841.2035,09:47:21.203,5,false,0.608846,-0.437927,0.424438,0.507324,0.958022,0.059571,-0.320317,-23.198751,-57.523835,21.58268
1784738841.2349,09:47:21.234,6,false,0.601401,-0.447205,0.408752,0.520813,0.983902,0.035157,-0.328618,-23.032229,-56.990342,21.084289
1784738841.266,09:47:21.266,7,false,0.59369,-0.455078,0.394226,0.533875,0.982437,0.039551,-0.347662,-22.957128,-56.510199,20.486198
1784738841.2971,09:47:21.297,8,false,0.583161,-0.465027,0.375122,0.550415,1.00734,0.050294,-0.347173,-22.829722,-55.883669,19.783424
1784738841.3283,09:47:21.328,9,false,0.576633,-0.47052,0.365234,0.559204,1.014664,0.04004,-0.352056,-22.61038,-55.245024,19.225696
1784738841.3594,09:47:21.359,10,false,0.568155,-0.476501,0.354675,0.569519,0.977066,0.059083,-0.338872,-22.338203,-54.595474,18.619065
1784738841.3906,09:47:21.390,11,false,0.565716,-0.477966,0.352173,0.572266,0.981949,0.060548,-0.337896,-22.227828,-54.13051,18.058142
1784738841.4217,09:47:21.421,12,false,0.559964,-0.480957,0.346985,0.578552,0.96144,0.083009,-0.307622,-21.904183,-53.607365,17.553312
1784738841.453,09:47:21.453,13,false,0.557494,-0.482605,0.344482,0.581055,0.949233,0.096681,-0.317876,-21.612903,-52.957088,16.994289
1784738841.4844,09:47:21.484,14,false,0.558662,-0.482788,0.343567,0.580322,0.980484,0.133303,-0.312993,-21.590012,-52.386793,16.461259
1784738841.5157,09:47:21.515,15,false,0.562057,-0.48175,0.344421,0.577393,0.950698,0.142092,-0.303716,-21.599318,-52.127743,16.056302
1784738841.5471,09:47:21.547,16,false,0.56409,-0.481812,0.343567,0.575867,0.957534,0.163088,-0.307134,-21.488062,-51.730106,15.676887
1784738841.5784,09:47:21.578,17,false,0.56807,-0.481628,0.343079,0.572388,0.956069,0.151369,-0.312993,-21.343071,-51.372232,15.305506
1784738841.6097,09:47:21.609,18,false,0.571864,-0.48053,0.344604,0.568604,0.957046,0.159182,-0.300298,-21.182671,-51.020238,15.00117
1784738841.6411,09:47:21.641,19,false,0.571948,-0.481201,0.343628,0.568542,0.953628,0.162112,-0.304692,-20.933634,-50.673536,14.667453
1784738841.6722,09:47:21.672,20,false,0.575963,-0.479187,0.346069,0.564697,0.962417,0.142092,-0.300298,-20.769316,-50.167104,14.426922
1784738841.7034,09:47:21.703,21,false,0.578478,-0.4776,0.347839,0.562378,0.949233,0.143069,-0.306645,-20.561615,-49.8459,14.15063
1784738841.7345,09:47:21.734,22,false,0.581908,-0.475891,0.34967,0.559143,0.962905,0.153811,-0.307622,-20.509268,-49.317555,13.887013
1784738841.7656,09:47:21.765,23,false,0.583169,-0.475403,0.350281,0.557861,0.959976,0.158206,-0.309087,-20.462156,-48.901859,13.724526
1784738841.7968,09:47:21.796,24,false,0.586571,-0.474243,0.351501,0.554504,0.96144,0.181643,-0.306645,-20.35994,-48.587549,13.488566
1784738841.8279,09:47:21.827,25,false,0.589908,-0.473083,0.352661,0.551208,0.954604,0.183597,-0.312016,-20.267945,-48.199993,13.276201
1784738841.8593,09:47:21.859,26,false,0.591701,-0.472351,0.35321,0.549561,0.953628,0.191897,-0.321782,-20.095427,-47.836238,12.890673
1784738841.8906,09:47:21.890,27,false,0.594219,-0.471008,0.354187,0.547363,0.951675,0.188968,-0.309087,-19.955114,-47.478951,12.70819
1784738841.9219,09:47:21.921,28,false,0.595029,-0.470398,0.354675,0.546692,0.955581,0.178225,-0.323247,-19.93351,-47.142439,12.48414
1784738841.9533,09:47:21.953,29,false,0.59716,-0.468079,0.356506,0.545166,0.94435,0.181155,-0.320806,-19.764528,-46.88444,12.177818
1784738841.9844,09:47:21.984,30,false,0.598627,-0.466431,0.357788,0.544128,0.96144,0.187015,-0.324224,-19.702167,-46.547564,12.021759
1784738842.0158,09:47:22.015,31,false,0.60008,-0.46521,0.358704,0.542969,0.938003,0.198245,-0.318853,-19.571272,-46.289237,11.851398
1784738842.0469,09:47:22.046,0,false,0.600437,-0.465271,0.358582,0.542603,0.945815,0.218753,-0.309087,-19.61796,-46.041789,11.862566
1784738842.078,09:47:22.078,1,false,0.599981,-0.46637,0.357361,0.542969,0.945815,0.215335,-0.307622,-19.600163,-45.75927,11.663263
1784738842.1092,09:47:22.109,2,false,0.597529,-0.46991,0.353088,0.54541,0.93312,0.246098,-0.306157,-19.4047,-45.400326,11.453982
1784738842.1403,09:47:22.140,3,false,0.594119,-0.47406,0.347961,0.548828,0.930678,0.263676,-0.30518,-19.154014,-44.927739,11.295537
1784738842.1715,09:47:22.171,4,false,0.588923,-0.47937,0.340637,0.554382,0.903334,0.279789,-0.312505,-19.033074,-44.607087,11.197799
1784738842.2026,09:47:22.202,5,false,0.578188,-0.488159,0.325623,0.566895,0.917494,0.234379,-0.350591,-18.969089,-44.064284,11.109834
1784738842.2339,09:47:22.233,6,false,0.569999,-0.493286,0.314453,0.576965,0.919448,0.20557,-0.36817,-18.94141,-43.500993,10.925989
1784738842.2653,09:47:22.265,7,false,0.558035,-0.499329,0.298645,0.591675,0.937514,0.171878,-0.388678,-18.766961,-42.919262,10.820343
1784738842.2966,09:47:22.296,8,false,0.554256,-0.500916,0.294006,0.596191,0.939956,0.14844,-0.402838,-18.595003,-42.38075,10.680401
1784738842.328,09:47:22.328,9,false,0.540895,-0.505859,0.279358,0.611145,0.956069,0.129397,-0.409186,-18.380425,-41.686735,10.46473
1784738842.3593,09:47:22.359,10,false,0.53148,-0.509094,0.269714,0.620972,0.954116,0.123537,-0.394537,-18.187305,-41.032215,10.300534
1784738842.3906,09:47:22.390,11,false,0.522432,-0.512024,0.26001,0.63031,0.945327,0.107912,-0.398932,-17.938728,-40.144069,10.302295
1784738842.422,09:47:22.422,12,false,0.523794,-0.511353,0.260071,0.6297,0.975601,0.138674,-0.389654,-17.789778,-39.539138,10.229112
1784738842.4531,09:47:22.453,13,false,0.526366,-0.510559,0.261597,0.627563,0.954116,0.137209,-0.391608,-17.580953,-38.919931,10.163246
1784738842.4843,09:47:22.484,14,false,0.532156,-0.509155,0.266418,0.621765,0.925795,0.180179,-0.384283,-17.378058,-38.153291,10.163783
1784738842.5154,09:47:22.515,15,false,0.536935,-0.50824,0.270325,0.616699,0.930678,0.206058,-0.370611,-17.180497,-37.627807,10.10445
1784738842.5465,09:47:22.546,16,false,0.544649,-0.506897,0.276428,0.608276,0.915541,0.217288,-0.356451,-17.017647,-37.065148,10.215544
1784738842.5779,09:47:22.577,17,false,0.549721,-0.505798,0.280273,0.602844,0.909194,0.223636,-0.337407,-16.930897,-36.618571,10.180943
1784738842.6092,09:47:22.609,18,false,0.554521,-0.504456,0.283936,0.597839,0.911147,0.227543,-0.333501,-16.778053,-35.992343,10.194663
1784738842.6406,09:47:22.640,19,false,0.561607,-0.501648,0.289368,0.590942,0.93019,0.210941,-0.351568,-16.685355,-35.518462,10.221966
1784738842.6719,09:47:22.671,20,false,0.566178,-0.499573,0.293335,0.586365,0.92726,0.206058,-0.34522,-16.601927,-35.091969,10.321308
1784738842.7032,09:47:22.703,21,false,0.570873,-0.497009,0.297913,0.581665,0.937514,0.19971,-0.34522,-16.511888,-34.723078,10.425669
1784738842.7346,09:47:22.734,22,false,0.577297,-0.49292,0.30481,0.575195,0.938003,0.2168,-0.34229,-16.475714,-34.435939,10.489686
1784738842.7659,09:47:22.765,23,false,0.581461,-0.490479,0.308838,0.570923,0.933608,0.214847,-0.341314,-16.443157,-34.177513,10.367856
1784738842.7971,09:47:22.797,24,false,0.587169,-0.487183,0.314209,0.564941,0.934096,0.201175,-0.341802,-16.354041,-33.810346,10.377839
1784738842.8282,09:47:22.828,25,false,0.589086,-0.486084,0.31604,0.562866,0.935561,0.213382,-0.343755,-16.408421,-33.53971,10.446639
1784738842.8593,09:47:22.859,26,false,0.594822,-0.482605,0.321289,0.556824,0.940444,0.202152,-0.336431,-16.457363,-33.26623,10.359021
1784738842.8905,09:47:22.890,27,false,0.598346,-0.48053,0.324585,0.552917,0.937514,0.212894,-0.338384,-16.38178,-33.050006,10.459611
1784738842.9216,09:47:22.921,28,false,0.603584,-0.477478,0.329285,0.547058,0.924331,0.208011,-0.338872,-16.328709,-32.870359,10.460419
1784738842.9528,09:47:22.952,29,false,0.606888,-0.475647,0.332214,0.543213,0.939467,0.214847,-0.336431,-16.206176,-32.708676,10.431238
1784738842.9841,09:47:22.984,30,false,0.609812,-0.473999,0.334778,0.539795,0.928725,0.22266,-0.333013,-16.215527,-32.63793,10.464791
1784738843.0154,09:47:23.015,31,false,0.614125,-0.471069,0.338745,0.534973,0.926772,0.226078,-0.336919,-16.179082,-32.49949,10.435173
1784738843.0468,09:47:23.046,0,false,0.616986,-0.469177,0.341064,0.53186,0.922866,0.214359,-0.341802,-16.071512,-32.374894,10.513194
1784738843.0781,09:47:23.078,1,false,0.619695,-0.467224,0.343384,0.528931,0.933608,0.205081,-0.343267,-16.004606,-32.217896,10.523597
1784738843.1095,09:47:23.109,2,false,0.623744,-0.464233,0.346741,0.524597,0.94435,0.211917,-0.354986,-15.839714,-32.196228,10.547914
1784738843.1408,09:47:23.140,3,false,0.626584,-0.462402,0.349121,0.52124,0.937026,0.215335,-0.347173,-15.84085,-32.072051,10.614661
1784738843.1719,09:47:23.171,4,false,0.630346,-0.460144,0.352661,0.516296,0.933608,0.223148,-0.345708,-15.886734,-31.915429,10.570056
1784738843.2031,09:47:23.203,5,false,0.632915,-0.458496,0.354919,0.513062,0.930678,0.220706,-0.34229,-15.868214,-31.729608,10.574773
1784738843.2342,09:47:23.234,6,false,0.635318,-0.456909,0.357239,0.509888,0.921401,0.219242,-0.336919,-15.896407,-31.487601,10.62388
1784738843.2653,09:47:23.265,7,false,0.638863,-0.454224,0.360657,0.505432,0.932631,0.225101,-0.332036,-15.817105,-31.434286,10.787707
1784738843.2965,09:47:23.296,8,false,0.641116,-0.452393,0.362793,0.502686,0.941421,0.229007,-0.341314,-15.820501,-31.461071,10.755705
1784738843.3276,09:47:23.327,9,false,0.643044,-0.450623,0.364868,0.500305,0.95021,0.21973,-0.330571,-15.823558,-31.290779,10.756811
1784738843.359,09:47:23.359,10,false,0.645158,-0.448547,0.366943,0.497925,0.93312,0.209964,-0.338384,-15.736587,-31.242192,10.817622
1784738843.3903,09:47:23.390,11,false,0.64806,-0.445679,0.369934,0.494507,0.935073,0.224613,-0.344244,-15.88262,-31.048926,10.872352
1784738843.4216,09:47:23.421,12,false,0.649985,-0.443848,0.372009,0.492065,0.935073,0.212894,-0.334478,-15.93928,-30.904894,10.891701
1784738843.453,09:47:23.453,13,false,0.652419,-0.441223,0.375122,0.488831,0.946792,0.216312,-0.342779,-15.900552,-30.835081,10.924069
1784738843.4843,09:47:23.484,14,false,0.653852,-0.439697,0.376953,0.486877,0.93312,0.207523,-0.340337,-15.820835,-30.847018,10.908339
1784738843.5155,09:47:23.515,15,false,0.655505,-0.438049,0.378906,0.484619,0.934096,0.201663,-0.336919,-15.719181,-30.857761,10.864274
1784738843.5467,09:47:23.546,16,false,0.657921,-0.435547,0.381409,0.481628,0.931655,0.205081,-0.338384,-15.61274,-30.807615,10.734892
1784738843.5778,09:47:23.577,17,false,0.659723,-0.433716,0.383301,0.479309,0.935073,0.198245,-0.338384,-15.636573,-30.702668,10.85771
1784738843.609,09:47:23.609,18,false,0.661267,-0.431946,0.385071,0.477356,0.945815,0.201663,-0.334478,-15.687931,-30.847477,10.938339
1784738843.6401,09:47:23.640,19,false,0.663064,-0.429871,0.38739,0.474854,0.943862,0.201175,-0.33106,-15.704245,-30.783405,10.921182
1784738843.6713,09:47:23.671,20,false,0.664474,-0.428467,0.388916,0.4729,0.937514,0.185061,-0.34229,-15.614251,-30.650971,11.025371
1784738843.7024,09:47:23.702,21,false,0.666683,-0.426331,0.390808,0.470154,0.945327,0.203128,-0.349126,-15.66784,-30.591596,11.164003
1784738843.7337,09:47:23.733,22,false,0.667633,-0.425415,0.391357,0.469177,0.937514,0.193362,-0.345708,-15.656256,-30.58302,11.273817
1784738843.7651,09:47:23.765,23,false,0.670339,-0.422729,0.393066,0.466309,0.926772,0.187991,-0.347662,-15.705645,-30.560348,11.357697
1784738843.7964,09:47:23.796,24,false,0.671785,-0.421204,0.394043,0.464783,0.947768,0.184573,-0.353033,-15.705234,-30.360497,11.388327
1784738843.8278,09:47:23.827,25,false,0.673758,-0.419189,0.395691,0.462341,0.939467,0.203616,-0.357427,-15.749725,-30.464754,11.281309
1784738843.8591,09:47:23.859,26,false,0.674712,-0.418152,0.396729,0.460999,0.937026,0.192874,-0.348638,-15.909399,-30.364185,11.199947
1784738843.8904,09:47:23.890,27,false,0.675626,-0.417175,0.397827,0.459595,0.933608,0.201663,-0.354986,-15.933474,-30.363397,11.141675
1784738843.9218,09:47:23.921,28,false,0.676909,-0.41626,0.398926,0.457581,0.92726,0.194827,-0.352544,-15.925233,-30.377641,11.044369
1784738843.9529,09:47:23.952,29,false,0.677994,-0.415466,0.399658,0.456055,0.932143,0.176272,-0.353033,-15.977633,-30.225968,11.076424
1784738843.9841,09:47:23.984,30,false,0.679786,-0.41394,0.400696,0.453857,0.925795,0.192386,-0.352056,-15.964977,-30.149278,11.299673
1784738844.0152,09:47:24.015,31,false,0.681199,-0.412659,0.40155,0.452148,0.924819,0.20264,-0.354009,-15.923678,-30.080257,11.366013
1784738844.0463,09:47:24.046,0,false,0.682546,-0.411499,0.4021,0.450684,0.928725,0.19678,-0.356939,-15.991187,-29.98823,11.485535
1784738844.0775,09:47:24.077,1,false,0.684422,-0.409851,0.40271,0.448792,0.953628,0.188479,-0.352544,-15.887452,-29.92036,11.473473
1784738844.1088,09:47:24.108,2,false,0.685673,-0.408752,0.403259,0.447388,0.934096,0.192386,-0.360845,-15.809045,-30.023769,11.477572
1784738844.1402,09:47:24.140,3,false,0.686899,-0.407776,0.404053,0.445679,0.932631,0.200198,-0.35938,-15.813248,-29.997207,11.526122
1784738844.1715,09:47:24.171,4,false,0.688737,-0.406311,0.405151,0.443176,0.936538,0.208988,-0.361822,-15.846938,-29.85367,11.510002
1784738844.2028,09:47:24.202,5,false,0.689938,-0.405334,0.405884,0.441528,0.924331,0.203616,-0.364263,-15.697813,-29.844117,11.555309
1784738844.2342,09:47:24.234,6,false,0.691831,-0.403931,0.407104,0.438721,0.922866,0.200198,-0.357427,-15.683231,-29.83552,11.73067
1784738844.2653,09:47:24.265,7,false,0.692521,-0.403381,0.407593,0.437683,0.928237,0.211429,-0.366705,-15.550477,-29.902552,11.679141
1784738844.2965,09:47:24.296,8,false,0.694009,-0.402283,0.40863,0.435364,0.925307,0.203616,-0.358404,-15.535675,-29.84325,11.722488
1784738844.3276,09:47:24.327,9,false,0.694886,-0.401672,0.409363,0.433838,0.934585,0.207523,-0.357427,-15.537307,-29.700154,11.701685
1784738844.3587,09:47:24.358,10,false,0.696182,-0.401001,0.410461,0.431335,0.927749,0.215824,-0.353521,-15.493914,-29.571369,11.682962
1784738844.3899,09:47:24.389,11,false,0.697013,-0.400513,0.411255,0.429688,0.938491,0.218265,-0.349615,-15.52963,-29.4106,11.591343
1784738844.421,09:47:24.421,12,false,0.697759,-0.399841,0.41217,0.428223,0.942397,0.200687,-0.346197,-15.472051,-29.475262,11.64347
1784738844.4522,09:47:24.452,13,false,0.699039,-0.398438,0.413635,0.426025,0.933608,0.21973,-0.346197,-15.629584,-29.503551,11.600661
1784738844.4835,09:47:24.483,14,false,0.699651,-0.397583,0.41449,0.424988,0.938979,0.194827,-0.349615,-15.636779,-29.514056,11.502317
1784738844.5148,09:47:24.514,15,false,0.700333,-0.396729,0.415405,0.423767,0.934585,0.208011,-0.35108,-15.718024,-29.418834,11.593254
1784738844.5462,09:47:24.546,16,false,0.701432,-0.395264,0.416748,0.421997,0.919936,0.189456,-0.349615,-15.686467,-29.333135,11.540513
1784738844.5775,09:47:24.577,17,false,0.702203,-0.394226,0.417542,0.420898,0.924331,0.194827,-0.352544,-15.658066,-29.405543,11.448185
1784738844.6089,09:47:24.608,18,false,0.703516,-0.392212,0.41925,0.418884,0.923842,0.166018,-0.340337,-15.677366,-29.410896,11.529581
1784738844.6402,09:47:24.640,19,false,0.704193,-0.390137,0.421021,0.417908,0.915053,0.172854,-0.341314,-15.649875,-29.355898,11.662653
1784738844.6715,09:47:24.671,20,false,0.705205,-0.386963,0.423279,0.41687,0.960464,0.160159,-0.358892,-15.565318,-29.336307,11.543157
1784738844.7027,09:47:24.702,21,false,0.707204,-0.379272,0.427246,0.416504,0.952651,0.154788,-0.373053,-15.57894,-29.213998,11.450564
1784738844.7338,09:47:24.733,22,false,0.708738,-0.373535,0.429871,0.416382,0.966323,0.189944,-0.377447,-15.651014,-29.388044,11.427046
1784738844.765,09:47:24.765,23,false,0.710441,-0.366455,0.43396,0.415527,0.965835,0.188479,-0.376471,-15.67102,-29.469915,11.480649
1784738844.7961,09:47:24.796,24,false,0.710962,-0.364258,0.435364,0.4151,0.946304,0.173831,-0.371588,-15.733887,-29.573507,11.40926
1784738844.8274,09:47:24.827,25,false,0.71201,-0.358826,0.438904,0.414307,0.966323,0.210452,-0.371588,-15.655882,-29.756463,11.330057
1784738844.8588,09:47:24.858,26,false,0.712323,-0.356567,0.440979,0.413513,0.954116,0.198734,-0.367681,-15.660448,-29.995893,11.333543
1784738844.8901,09:47:24.890,27,false,0.712272,-0.355042,0.443542,0.41217,0.941909,0.150393,-0.371099,-15.604741,-30.166518,11.142281
1784738844.9215,09:47:24.921,28,false,0.712419,-0.354492,0.444763,0.411072,0.92726,0.127443,-0.360357,-15.629374,-30.320081,11.149591
1784738844.9528,09:47:24.952,29,false,0.712948,-0.354492,0.445435,0.409424,0.914565,0.145022,-0.358404,-15.576774,-30.413425,11.081401
1784738844.9841,09:47:24.984,30,false,0.714566,-0.354858,0.445679,0.406006,0.936538,0.126955,-0.363287,-15.559343,-30.51239,11.13966
1784738845.0153,09:47:25.015,31,false,0.716091,-0.354431,0.445679,0.403687,0.938491,0.137209,-0.361822,-15.633377,-30.736042,11.147232
1784738845.0466,09:47:25.046,0,false,0.717075,-0.354431,0.445862,0.401733,0.951675,0.158206,-0.362799,-15.565424,-30.922375,11.139093
1784738845.0777,09:47:25.077,1,false,0.718064,-0.355286,0.446655,0.398315,0.940444,0.161135,-0.356451,-15.623896,-31.090075,11.056999
1784738845.1089,09:47:25.108,2,false,0.718597,-0.355896,0.447266,0.396118,0.929702,0.158206,-0.357916,-15.467168,-31.18119,10.923299
1784738845.14,09:47:25.140,3,false,0.719814,-0.355591,0.447815,0.393555,0.934585,0.155276,-0.354986,-15.55042,-31.308054,10.84783
1784738845.1712,09:47:25.171,4,false,0.720391,-0.35498,0.44812,0.3927,0.948745,0.171878,-0.367193,-15.625346,-31.302602,10.884585
1784738845.2023,09:47:25.202,5,false,0.721272,-0.353333,0.448914,0.391663,0.948257,0.17969,-0.366217,-15.57315,-31.372464,10.917665
1784738845.2336,09:47:25.233,6,false,0.721335,-0.3526,0.449707,0.391296,0.951186,0.166995,-0.355474,-15.63085,-31.420385,10.992298
1784738845.265,09:47:25.265,7,false,0.720741,-0.353027,0.449951,0.391724,0.948745,0.166995,-0.358892,-15.697733,-31.553238,10.865068
1784738845.2963,09:47:25.296,8,false,0.71991,-0.354065,0.449829,0.392456,0.938491,0.146975,-0.34522,-15.638298,-31.448498,10.750561
1784738845.3277,09:47:25.327,9,false,0.719297,-0.355164,0.449463,0.393005,0.93312,0.14844,-0.335943,-15.734345,-31.57854,10.722274
1784738845.359,09:47:25.359,10,false,0.719268,-0.356812,0.448792,0.392334,0.922377,0.149905,-0.336431,-15.71611,-31.665669,10.771584
1784738845.3901,09:47:25.390,11,false,0.719892,-0.357239,0.448303,0.391357,0.946792,0.139162,-0.344244,-15.774467,-31.624455,10.666426
1784738845.4213,09:47:25.421,12,false,0.721819,-0.355469,0.449158,0.388428,0.960952,0.119631,-0.365728,-15.812036,-31.751855,10.661506
1784738845.4524,09:47:25.452,13,false,0.723798,-0.352478,0.451477,0.384766,0.966323,0.122072,-0.38526,-15.786031,-31.896422,10.746801
1784738845.4836,09:47:25.483,14,false,0.72598,-0.349243,0.454407,0.380127,0.949233,0.149416,-0.374029,-15.912166,-31.906902,10.688982
1784738845.5147,09:47:25.514,15,false,0.72946,-0.344788,0.459229,0.371643,0.950698,0.18262,-0.362799,-15.816334,-32.125688,10.651899
1784738845.5458,09:47:25.545,16,false,0.731784,-0.342041,0.46228,0.365784,0.940932,0.197757,-0.355962,-15.894577,-32.158102,10.708247
1784738845.577,09:47:25.577,17,false,0.733536,-0.339844,0.465332,0.360413,0.941421,0.209476,-0.34229,-15.950042,-32.20223,10.699145
1784738845.6081,09:47:25.608,18,false,0.735061,-0.338074,0.46875,0.354492,0.927749,0.203616,-0.338872,-15.99996,-32.316713,10.690953
1784738845.6395,09:47:25.639,19,false,0.735571,-0.337524,0.470276,0.351929,0.93019,0.206058,-0.341802,-16.05984,-32.46461,10.818165
1784738845.6708,09:47:25.670,20,false,0.735286,-0.336853,0.472473,0.35022,0.940444,0.183108,-0.335454,-15.994102,-32.552856,10.723302
1784738845.7021,09:47:25.702,21,false,0.734916,-0.336609,0.473267,0.350159,0.934096,0.190433,-0.329595,-16.09943,-32.677138,10.727649
1784738845.7335,09:47:25.733,22,false,0.73363,-0.336365,0.475342,0.350281,0.946304,0.16553,-0.316899,-16.25404,-32.89367,10.716607
1784738845.7648,09:47:25.764,23,false,0.732377,-0.336304,0.476685,0.351135,0.942397,0.181155,-0.326665,-16.423097,-33.043686,10.6319
1784738845.7962,09:47:25.796,24,false,0.730221,-0.336304,0.478455,0.35321,0.943374,0.162112,-0.335454,-16.545341,-33.178701,10.675294
1784738845.8273,09:47:25.827,25,false,0.728606,-0.336182,0.479736,0.354919,0.938979,0.160159,-0.315435,-16.595545,-33.434799,10.624626
1784738845.8584,09:47:25.858,26,false,0.72672,-0.336304,0.480835,0.357178,0.957534,0.149905,-0.301762,-16.715497,-33.515749,10.579024
1784738845.8896,09:47:25.889,27,false,0.723884,-0.335754,0.482849,0.360718,0.963882,0.130861,-0.312993,-16.868316,-33.738142,10.597798
1784738845.9207,09:47:25.920,28,false,0.721869,-0.334778,0.484436,0.363525,0.97023,0.135744,-0.304204,-16.975946,-33.908388,10.569834
1784738845.9519,09:47:25.951,29,false,0.720211,-0.333008,0.486694,0.365417,0.976577,0.10547,-0.291997,-17.012997,-34.121425,10.739065
1784738845.983,09:47:25.983,30,false,0.717582,-0.329163,0.49115,0.368103,0.977066,0.089845,-0.278325,-16.956619,-34.223435,10.652112
1784738846.0143,09:47:26.014,31,false,0.716251,-0.325256,0.494629,0.369507,0.943862,0.072755,-0.275883,-17.115234,-34.479737,10.663578
1784738846.0457,09:47:26.045,0,false,0.715554,-0.318115,0.499573,0.370422,0.959487,0.083009,-0.286137,-17.183218,-34.680501,10.643989
1784738846.077,09:47:26.077,1,false,0.71559,-0.313477,0.502625,0.370178,0.978042,0.06836,-0.297368,-17.244403,-35.115403,10.775897
1784738846.1084,09:47:26.108,2,false,0.716064,-0.309631,0.504822,0.369507,0.945815,0.073243,-0.304204,-17.389193,-35.491862,10.730123
1784738846.1397,09:47:26.139,3,false,0.718294,-0.306091,0.505859,0.366699,0.980972,0.066407,-0.307134,-17.564365,-35.89049,10.793602
1784738846.171,09:47:26.171,4,false,0.719899,-0.304504,0.505859,0.364868,0.969741,0.079103,-0.300786,-17.662205,-36.279162,10.686242
1784738846.2022,09:47:26.202,5,false,0.721399,-0.303162,0.505188,0.363953,0.96437,0.083986,-0.316899,-17.810076,-36.569153,10.604571
1784738846.2333,09:47:26.233,6,false,0.721717,-0.302795,0.504822,0.364136,0.977554,0.089845,-0.334966,-17.928207,-36.919867,10.560975
1784738846.2645,09:47:26.264,7,false,0.72165,-0.301697,0.504028,0.366272,0.971206,0.099611,-0.341314,-17.974708,-37.175694,10.611462
1784738846.2956,09:47:26.295,8,false,0.720497,-0.301636,0.503845,0.368835,0.985855,0.080079,-0.337407,-18.091329,-37.450801,10.612039
1784738846.3267,09:47:26.326,9,false,0.71751,-0.302368,0.503845,0.374023,0.952163,0.066896,-0.3252,-18.076657,-37.803073,10.612557
1784738846.3581,09:47:26.358,10,false,0.714988,-0.303406,0.503662,0.378235,0.963882,0.041016,-0.297856,-18.183083,-38.16498,10.508348
1784738846.3894,09:47:26.389,11,false,0.712417,-0.304626,0.503296,0.382568,0.954604,0.038575,-0.301762,-18.29382,-38.50565,10.429512
1784738846.4208,09:47:26.420,12,false,0.708917,-0.306091,0.502625,0.388733,0.96144,0.021973,-0.300298,-18.333669,-38.827207,10.313699
1784738846.4521,09:47:26.452,13,false,0.70687,-0.306519,0.502258,0.392578,0.968276,0.023438,-0.310063,-18.369532,-39.011931,10.344052
1784738846.4834,09:47:26.483,14,false,0.704895,-0.306519,0.502014,0.396423,0.959976,0.021485,-0.317876,-18.371901,-39.327721,10.341462
1784738846.5146,09:47:26.514,15,false,0.702506,-0.305969,0.50177,0.401367,0.969253,0.012696,-0.313481,-18.269357,-39.626886,10.354085
1784738846.5457,09:47:26.545,16,false,0.700954,-0.305847,0.501465,0.404541,0.974624,0.035645,-0.338384,-18.236882,-39.806412,10.275722
1784738846.5768,09:47:26.576,17,false,0.698131,-0.305908,0.501404,0.409424,0.975601,0.010742,-0.323247,-18.357193,-40.117523,10.309873
1784738846.608,09:47:26.608,18,false,0.697146,-0.305908,0.501526,0.41095,0.974136,0.021973,-0.33106,-18.420612,-40.292846,10.250885
1784738846.6391,09:47:26.639,19,false,0.694269,-0.30658,0.501587,0.415222,0.948257,0.009277,-0.314458,-18.477688,-40.525406,10.167889
1784738846.6703,09:47:26.670,20,false,0.692834,-0.307373,0.501465,0.417175,0.977066,0.005371,-0.317388,-18.484196,-40.779572,10.302546
1784738846.7014,09:47:26.701,21,false,0.690714,-0.309082,0.501099,0.419861,0.961929,0.018555,-0.312993,-18.490053,-41.112998,10.468598
1784738846.7325,09:47:26.732,22,false,0.688928,-0.311035,0.500244,0.422363,0.963394,0.024414,-0.327642,-18.510278,-41.293451,10.528323
1784738846.7639,09:47:26.763,23,false,0.68842,-0.311768,0.499817,0.423157,0.955581,0.010742,-0.315435,-18.573342,-41.410997,10.537213
1784738846.7952,09:47:26.795,24,false,0.686775,-0.313965,0.498474,0.425781,0.9673,0.007324,-0.307134,-18.570284,-41.576603,10.425584
1784738846.8266,09:47:26.826,25,false,0.685408,-0.315125,0.497742,0.427979,0.966323,0.008301,-0.326665,-18.552578,-41.665834,10.414841
1784738846.8579,09:47:26.857,26,false,0.683139,-0.316101,0.497925,0.430664,0.973159,0.009277,-0.304204,-18.641319,-41.716234,10.36031
1784738846.8892,09:47:26.889,27,false,0.681506,-0.317017,0.498047,0.432434,0.958999,0.009277,-0.304204,-18.706233,-41.926086,10.400956
1784738846.9206,09:47:26.920,28,false,0.680511,-0.318359,0.497437,0.433716,0.962417,0.005371,-0.312016,-18.630071,-42.129907,10.467444
1784738846.9519,09:47:26.951,29,false,0.678859,-0.319702,0.496643,0.436218,0.961929,-0.018067,-0.321782,-18.591432,-42.223622,10.3927
1784738846.9831,09:47:26.983,30,false,0.677815,-0.320862,0.496033,0.437683,0.968765,-0.016602,-0.303716,-18.586565,-42.307967,10.295522
1784738847.0142,09:47:27.014,31,false,0.677539,-0.322632,0.495422,0.4375,0.972671,0.000488,-0.318364,-18.582185,-42.383876,10.462277
1784738847.0453,09:47:27.045,0,false,0.677264,-0.3255,0.494568,0.436768,0.978042,0.015137,-0.291508,-18.712828,-42.362472,10.447864
1784738847.0765,09:47:27.076,1,false,0.676859,-0.326721,0.494263,0.436829,0.96144,0.019532,-0.301762,-18.695821,-42.432931,10.479754
1784738847.1076,09:47:27.107,2,false,0.676237,-0.328674,0.493225,0.4375,0.966323,0.015625,-0.290532,-18.650608,-42.346806,10.44864
1784738847.139,09:47:27.139,3,false,0.676004,-0.329285,0.49292,0.437744,0.96437,0.022461,-0.290532,-18.759454,-42.344062,10.480453
1784738847.1703,09:47:27.170,4,false,0.67515,-0.330444,0.492065,0.439148,0.957046,0.025391,-0.289555,-18.663016,-42.341593,10.553946
1784738847.2016,09:47:27.201,5,false,0.674813,-0.330994,0.491394,0.440002,0.977066,0.003418,-0.306157,-18.636037,-42.249648,10.560274
1784738847.233,09:47:27.233,6,false,0.674111,-0.331543,0.490784,0.441345,0.978531,-0.000488,-0.298344,-18.566894,-42.421113,10.640738
1784738847.2643,09:47:27.264,7,false,0.673621,-0.332031,0.490356,0.4422,0.974624,0.008789,-0.297856,-18.534573,-42.515615,10.653341
1784738847.2957,09:47:27.295,8,false,0.673111,-0.332214,0.490051,0.443176,0.966323,0.000488,-0.295903,-18.550346,-42.690391,10.619822
1784738847.3269,09:47:27.326,9,false,0.67204,-0.332703,0.489807,0.444702,0.98439,0.015625,-0.303227,-18.639311,-42.638335,10.514886
1784738847.358,09:47:27.358,10,false,0.671109,-0.332581,0.490112,0.445862,0.949233,0.019532,-0.312505,-18.689472,-42.621393,10.450351
1784738847.3892,09:47:27.389,11,false,0.670193,-0.332092,0.490417,0.447266,0.963394,0.018555,-0.306645,-18.644893,-42.66596,10.481992
1784738847.4203,09:47:27.420,12,false,0.668599,-0.330688,0.491699,0.44928,0.969253,-0.005859,-0.302739,-18.649634,-42.571485,10.420746
1784738847.4515,09:47:27.451,13,false,0.66757,-0.329163,0.493225,0.450256,0.978531,-0.000977,-0.318853,-18.788485,-42.546274,10.50021
1784738847.4826,09:47:27.482,14,false,0.666581,-0.325989,0.496216,0.450745,0.982437,-0.046876,-0.317876,-18.808775,-42.553491,10.601635
1784738847.5139,09:47:27.513,15,false,0.666441,-0.323486,0.498535,0.450195,0.958511,-0.032715,-0.319341,-18.856943,-42.709526,10.767686
1784738847.5453,09:47:27.545,16,false,0.666394,-0.32196,0.500244,0.449463,0.961929,-0.016602,-0.308598,-18.945155,-42.775187,10.737687
1784738847.5766,09:47:27.576,17,false,0.666618,-0.320313,0.502258,0.448059,0.977066,-0.021485,-0.315435,-19.039501,-42.849236,10.80041
1784738847.608,09:47:27.608,18,false,0.666453,-0.31958,0.50354,0.447388,0.957534,-0.016114,-0.303716,-19.07955,-42.99065,10.856861
1784738847.6393,09:47:27.639,19,false,0.666241,-0.318787,0.505188,0.446411,0.966812,-0.018067,-0.295903,-19.100641,-43.177737,10.967482
1784738847.6706,09:47:27.670,20,false,0.666238,-0.318726,0.505554,0.446045,0.962905,-0.005371,-0.298344,-19.179438,-43.331162,10.977318
1784738847.702,09:47:27.702,21,false,0.665962,-0.318787,0.50647,0.445374,0.980484,-0.003418,-0.292485,-19.160632,-43.514106,11.001124
1784738847.7331,09:47:27.733,22,false,0.665335,-0.318665,0.507263,0.445496,0.975601,-0.004883,-0.286137,-19.218476,-43.61894,10.977689
1784738847.7643,09:47:27.764,23,false,0.664086,-0.318665,0.508362,0.446106,0.978531,-0.023438,-0.279301,-19.285489,-43.728245,10.986504
1784738847.7954,09:47:27.795,24,false,0.66302,-0.318726,0.508911,0.447021,0.962905,-0.03711,-0.281254,-19.285986,-43.87148,10.934622
1784738847.8265,09:47:27.826,25,false,0.66225,-0.318909,0.509155,0.447754,0.982925,-0.035645,-0.280278,-19.286433,-44.075162,11.037468
1784738847.8577,09:47:27.857,26,false,0.661153,-0.319153,0.50946,0.448853,0.983902,-0.033692,-0.284184,-19.15225,-44.243521,11.040305
1784738847.889,09:47:27.889,27,false,0.660116,-0.31958,0.50946,0.450073,0.97023,-0.024903,-0.279789,-19.181025,-44.395044,11.042859
1784738847.9204,09:47:27.920,28,false,0.65917,-0.320068,0.50946,0.451111,0.969741,-0.041993,-0.280278,-19.132152,-44.531415,11.045157
1784738847.9517,09:47:27.951,29,false,0.658149,-0.320068,0.509644,0.452393,0.979019,-0.052735,-0.294438,-19.192844,-44.534519,11.166856
1784738847.983,09:47:27.983,30,false,0.657528,-0.320007,0.509888,0.453064,0.98146,-0.052247,-0.296391,-19.262421,-44.582173,11.156755
1784738848.0142,09:47:28.014,31,false,0.656368,-0.320313,0.510376,0.453979,0.973648,-0.042481,-0.286625,-19.280178,-44.819462,11.147664
1784738848.0453,09:47:28.045,0,false,0.655949,-0.320435,0.51062,0.454224,0.968276,-0.040528,-0.280278,-19.191483,-44.883484,11.169389
1784738848.0765,09:47:28.076,1,false,0.654776,-0.320801,0.511353,0.454834,0.968276,-0.047852,-0.27686,-19.171472,-44.956057,11.203896
1784738848.1076,09:47:28.107,2,false,0.654224,-0.320618,0.511902,0.455139,0.970718,-0.052247,-0.286137,-19.332909,-45.12605,11.234952
1784738848.1387,09:47:28.138,3,false,0.653515,-0.320068,0.512878,0.455444,0.975601,-0.033204,-0.269047,-19.388479,-45.084643,11.17318
1784738848.1699,09:47:28.169,4,false,0.652391,-0.319458,0.514038,0.456177,0.983902,-0.05713,-0.291508,-19.423538,-45.062331,11.207308
1784738848.201,09:47:28.201,5,false,0.651949,-0.319214,0.514587,0.45636,0.984878,-0.041993,-0.271,-19.41023,-45.11702,11.282884
1784738848.2324,09:47:28.232,6,false,0.650378,-0.318787,0.516296,0.45697,0.971695,-0.058595,-0.27393,-19.473022,-45.196147,11.276134
1784738848.2637,09:47:28.263,7,false,0.649372,-0.318665,0.517151,0.45752,0.968276,-0.070314,-0.261723,-19.544488,-45.372039,11.210243
1784738848.295,09:47:28.295,8,false,0.647901,-0.318481,0.518188,0.458557,0.983413,-0.062501,-0.260258,-19.5789,-45.48548,11.330388
1784738848.3264,09:47:28.326,9,false,0.647086,-0.318054,0.518982,0.459106,0.98146,-0.063478,-0.25977,-19.68464,-45.587576,11.483379
1784738848.3577,09:47:28.357,10,false,0.646068,-0.317505,0.519775,0.460022,0.967788,-0.064454,-0.266117,-19.764853,-45.66451,11.486487
1784738848.3891,09:47:28.389,11,false,0.644359,-0.316772,0.520935,0.461609,0.980484,-0.070802,-0.265629,-19.926767,-45.85338,11.579007
1784738848.4203,09:47:28.420,12,false,0.643499,-0.316101,0.521973,0.462097,0.979995,-0.081544,-0.25977,-19.907997,-45.903733,11.647322
1784738848.4514,09:47:28.451,13,false,0.642506,-0.315613,0.522949,0.462708,0.980484,-0.07129,-0.266117,-19.980827,-46.068681,11.589174
1784738848.4826,09:47:28.482,14,false,0.640334,-0.31543,0.524963,0.463562,0.987808,-0.079591,-0.268559,-19.956652,-46.172273,11.506933
1784738848.5137,09:47:28.513,15,false,0.638452,-0.315308,0.526733,0.464233,0.982437,-0.095216,-0.265629,-20.024617,-46.385137,11.567501
1784738848.5449,09:47:28.544,16,false,0.635786,-0.314514,0.529724,0.465027,0.969741,-0.090333,-0.254887,-20.040924,-46.472037,11.622012
1784738848.576,09:47:28.576,17,false,0.63476,-0.314514,0.530579,0.465454,0.978042,-0.106935,-0.243168,-20.040646,-46.610062,11.611256
1784738848.6071,09:47:28.607,18,false,0.632087,-0.313843,0.533142,0.466614,0.978042,-0.102052,-0.231937,-20.204888,-46.704378,11.736161
1784738848.6385,09:47:28.638,19,false,0.630534,-0.31311,0.534607,0.467529,0.979995,-0.125002,-0.226078,-20.277937,-46.834123,11.878483
1784738848.6698,09:47:28.669,20,false,0.628541,-0.312317,0.536133,0.468994,0.975113,-0.124514,-0.239261,-20.373589,-47.010709,12.021527
1784738848.7011,09:47:28.701,21,false,0.627684,-0.311523,0.53717,0.469482,0.989761,-0.132326,-0.23389,-20.534445,-47.094868,12.120358
1784738848.7325,09:47:28.732,22,false,0.626754,-0.310974,0.538147,0.469971,0.9673,-0.119142,-0.237797,-20.709123,-47.424825,12.10463
1784738848.7638,09:47:28.763,23,false,0.62543,-0.310242,0.539734,0.470398,0.975113,-0.135256,-0.237308,-20.806518,-47.557295,12.284874
1784738848.7952,09:47:28.795,24,false,0.624685,-0.309937,0.540771,0.470398,0.968765,-0.129397,-0.234867,-20.714727,-47.826056,12.372325
1784738848.8263,09:47:28.826,25,false,0.623946,-0.30957,0.541992,0.470215,0.973648,-0.135744,-0.224613,-20.7667,-47.903449,12.286538
1784738848.8574,09:47:28.857,26,false,0.622633,-0.308899,0.54425,0.469788,0.989761,-0.129885,-0.219242,-20.843383,-48.07778,12.493453
1784738848.8886,09:47:28.888,27,false,0.62186,-0.308228,0.545776,0.469482,0.983902,-0.134768,-0.220218,-20.897444,-48.174862,12.485277
1784738848.9197,09:47:28.919,28,false,0.620844,-0.306824,0.548035,0.469116,0.972671,-0.129397,-0.210941,-20.826468,-48.411774,12.627456
1784738848.9509,09:47:28.950,29,false,0.62009,-0.306213,0.549072,0.469299,0.977066,-0.132326,-0.211917,-20.822405,-48.49041,12.665695
1784738848.982,09:47:28.982,30,false,0.619307,-0.30603,0.549744,0.469666,0.992691,-0.138674,-0.212406,-20.788841,-48.561183,12.655248
1784738849.0133,09:47:29.013,31,false,0.617906,-0.30603,0.550537,0.470581,0.975113,-0.145022,-0.207523,-20.788541,-48.744509,12.765477
1784738849.0447,09:47:29.044,0,false,0.617312,-0.305786,0.551025,0.470947,0.974624,-0.141604,-0.208499,-20.773317,-48.745011,12.804867
1784738849.076,09:47:29.076,1,false,0.616579,-0.305603,0.55127,0.471741,0.974136,-0.146975,-0.206058,-20.834384,-48.895,12.944995
1784738849.1074,09:47:29.107,2,false,0.616335,-0.305481,0.551453,0.471924,0.974624,-0.153811,-0.20557,-20.739807,-49.089807,12.996341
1784738849.1387,09:47:29.138,3,false,0.615903,-0.30481,0.551941,0.472351,0.978531,-0.152834,-0.207034,-20.864041,-49.369809,12.95283
1784738849.17,09:47:29.170,4,false,0.615431,-0.304626,0.552307,0.472656,0.981949,-0.153323,-0.208988,-20.901082,-49.397503,13.0333
1784738849.2014,09:47:29.201,5,false,0.615159,-0.303894,0.552856,0.472839,0.979019,-0.157229,-0.202152,-21.024143,-49.616828,13.255262
1784738849.2325,09:47:29.232,6,false,0.614745,-0.303528,0.553101,0.473328,0.973159,-0.144533,-0.211429,-21.209666,-49.634775,13.320443
1784738849.2637,09:47:29.263,7,false,0.614206,-0.303223,0.553345,0.473938,0.965835,-0.145022,-0.208499,-21.167283,-49.740649,13.39406
1784738849.2948,09:47:29.294,8,false,0.613624,-0.302856,0.553406,0.474854,0.974624,-0.161135,-0.219242,-21.338493,-49.791075,13.4005
1784738849.3259,09:47:29.325,9,false,0.613302,-0.302551,0.553406,0.475464,0.984878,-0.171878,-0.208499,-21.268274,-49.896274,13.585742
1784738849.3571,09:47:29.357,10,false,0.613213,-0.302124,0.553528,0.475708,0.974136,-0.167971,-0.217777,-21.145261,-49.946091,13.662736
1784738849.3882,09:47:29.388,11,false,0.613059,-0.302307,0.553284,0.476074,0.981949,-0.15967,-0.216312,-21.019596,-50.08065,13.642308
1784738849.4196,09:47:29.419,12,false,0.612683,-0.302795,0.553223,0.476318,0.976577,-0.162112,-0.203616,-20.981266,-50.276521,13.594016
1784738849.4509,09:47:29.450,13,false,0.61235,-0.303833,0.552917,0.47644,0.966323,-0.151858,-0.215824,-20.976678,-50.378037,13.70009
1784738849.4822,09:47:29.482,14,false,0.612424,-0.304016,0.552734,0.47644,0.98439,-0.166018,-0.210941,-21.017409,-50.469401,13.795558
1784738849.5136,09:47:29.513,15,false,0.612223,-0.304749,0.552185,0.476868,0.983413,-0.15967,-0.217288,-20.964345,-50.536675,13.821663
1784738849.5447,09:47:29.544,16,false,0.612373,-0.305176,0.551941,0.476685,0.98439,-0.163088,-0.2168,-20.886679,-50.462636,13.904973
1784738849.5759,09:47:29.575,17,false,0.612771,-0.305786,0.551636,0.476135,0.977066,-0.151858,-0.21387,-20.996225,-50.485725,13.890229
1784738849.607,09:47:29.607,18,false,0.612927,-0.306213,0.551331,0.476013,0.975113,-0.143557,-0.218265,-21.094818,-50.431735,13.906868
1784738849.6381,09:47:29.638,19,false,0.613078,-0.306335,0.551147,0.475952,0.979507,-0.145998,-0.207523,-21.108781,-50.353237,13.847073
1784738849.6693,09:47:29.669,20,false,0.613274,-0.306213,0.551208,0.475708,0.966323,-0.145998,-0.208011,-21.16621,-50.297543,13.88298
1784738849.7004,09:47:29.700,21,false,0.613281,-0.306213,0.551147,0.475769,0.979995,-0.165042,-0.211917,-21.143127,-50.322187,13.915297
1784738849.7316,09:47:29.731,22,false,0.613405,-0.306763,0.550598,0.475891,0.979507,-0.149416,-0.203128,-21.107398,-50.43409,13.899521
1784738849.7629,09:47:29.762,23,false,0.613456,-0.307129,0.550232,0.476013,0.982925,-0.144045,-0.201663,-21.090196,-50.340402,13.825507
1784738849.7942,09:47:29.794,24,false,0.613582,-0.30719,0.55011,0.475952,0.975601,-0.143069,-0.203616,-21.029853,-50.375714,13.923387
1784738849.8256,09:47:29.825,25,false,0.613533,-0.307129,0.549988,0.476196,0.983902,-0.137697,-0.204105,-21.15499,-50.452357,13.936709
1784738849.8569,09:47:29.856,26,false,0.613194,-0.307129,0.550049,0.476563,0.980484,-0.138186,-0.211429,-21.05826,-50.536289,13.829068
1784738849.8883,09:47:29.888,27,false,0.613008,-0.306763,0.550354,0.476685,0.976577,-0.153323,-0.206546,-21.19551,-50.50715,13.792007
1784738849.9196,09:47:29.919,28,false,0.61228,-0.306091,0.550903,0.477417,0.97023,-0.164553,-0.214847,-21.229312,-50.570649,13.743698
1784738849.9509,09:47:29.950,29,false,0.611796,-0.305542,0.55127,0.477966,0.975601,-0.166018,-0.204593,-21.229826,-50.627798,13.700221
1784738849.9822,09:47:29.982,30,false,0.611303,-0.304565,0.55188,0.478516,0.965835,-0.153811,-0.209964,-21.230289,-50.679232,13.765767
1784738850.0133,09:47:30.013,31,false,0.611024,-0.304077,0.552246,0.47876,0.973159,-0.160159,-0.210941,-21.24566,-50.845153,13.779898
1784738850.0445,09:47:30.044,0,false,0.610102,-0.302246,0.553528,0.479614,0.959487,-0.151858,-0.212406,-21.289401,-50.815036,13.897292
1784738850.0756,09:47:30.075,1,false,0.608974,-0.301208,0.554382,0.480713,0.976577,-0.155764,-0.206546,-21.224091,-50.892608,13.793593
1784738850.1067,09:47:30.106,2,false,0.607114,-0.299072,0.556091,0.482422,0.986831,-0.171878,-0.212406,-21.240081,-50.887653,13.834849
1784738850.1379,09:47:30.137,3,false,0.605854,-0.297546,0.557434,0.483398,0.973159,-0.185061,-0.19678,-21.194657,-51.06264,13.886933
1784738850.1692,09:47:30.169,4,false,0.604791,-0.296143,0.558594,0.484253,0.965347,-0.188479,-0.218265,-21.09396,-51.190221,13.963716
1784738850.2006,09:47:30.200,5,false,0.603331,-0.293884,0.560303,0.485474,0.971695,-0.202152,-0.208988,-21.03324,-51.334951,13.943098
1784738850.2319,09:47:30.231,6,false,0.602137,-0.292603,0.561462,0.486389,0.959487,-0.194827,-0.210941,-21.023454,-51.510069,14.118941
1784738850.2632,09:47:30.263,7,false,0.601338,-0.291321,0.562561,0.486877,0.972671,-0.20264,-0.211917,-21.059508,-51.592907,14.022985
1784738850.2946,09:47:30.294,8,false,0.600253,-0.289551,0.564209,0.487366,0.977554,-0.207034,-0.208988,-21.10691,-51.652507,14.026348
1784738850.3259,09:47:30.325,9,false,0.599675,-0.28833,0.565552,0.487244,0.975601,-0.203128,-0.205081,-21.119665,-51.855685,14.029374
1784738850.357,09:47:30.357,10,false,0.598289,-0.287231,0.567261,0.48761,0.959487,-0.19971,-0.206058,-21.101236,-51.978731,14.017144
1784738850.3882,09:47:30.388,11,false,0.597831,-0.286926,0.567688,0.487854,0.973159,-0.207523,-0.202152,-20.965019,-52.104425,14.050998
1784738850.4193,09:47:30.419,12,false,0.596251,-0.286133,0.568909,0.488831,0.962905,-0.228031,-0.198245,-20.872332,-52.262412,14.126329
1784738850.4505,09:47:30.450,13,false,0.594938,-0.285461,0.569885,0.489685,0.972671,-0.229496,-0.194827,-20.878637,-52.314877,14.104403
1784738850.4816,09:47:30.481,14,false,0.594176,-0.285706,0.57019,0.490112,0.965835,-0.230961,-0.189944,-20.929172,-52.511633,14.009901
1784738850.5127,09:47:30.512,15,false,0.593711,-0.286133,0.570618,0.489929,0.974136,-0.221195,-0.199222,-20.884932,-52.55413,14.149157
1784738850.5441,09:47:30.544,16,false,0.593707,-0.286194,0.570801,0.489685,0.9673,-0.223148,-0.186526,-20.875022,-52.562469,14.274487
1784738850.5754,09:47:30.575,17,false,0.593694,-0.286621,0.570862,0.48938,0.956558,-0.210452,-0.180667,-21.015642,-52.599882,14.148022
1784738850.6068,09:47:30.606,18,false,0.593605,-0.286926,0.570801,0.48938,0.978531,-0.218265,-0.18262,-21.067431,-52.813,14.138881
1784738850.6381,09:47:30.638,19,false,0.593655,-0.28717,0.570679,0.489319,0.973159,-0.215824,-0.193851,-21.024318,-52.810406,14.295146
1784738850.6692,09:47:30.669,20,false,0.593814,-0.287048,0.570679,0.489197,0.968765,-0.221683,-0.18262,-21.07524,-52.852933,14.346062
1784738850.7004,09:47:30.700,21,false,0.593723,-0.286926,0.570679,0.48938,0.977554,-0.216312,-0.196292,-20.956577,-52.951022,14.332071
1784738850.7315,09:47:30.731,22,false,0.592948,-0.285889,0.571533,0.489929,0.969253,-0.232914,-0.187991,-20.954457,-53.009395,14.469017
1784738850.7627,09:47:30.762,23,false,0.592787,-0.285034,0.572021,0.490051,0.950698,-0.221683,-0.184085,-20.952549,-53.1367,14.412823
1784738850.7938,09:47:30.793,24,false,0.592585,-0.284668,0.572205,0.490295,0.983902,-0.224613,-0.191897,-21.010647,-53.191459,14.451971
1784738850.8249,09:47:30.824,25,false,0.592356,-0.284302,0.572571,0.490356,0.958511,-0.231937,-0.192386,-21.047982,-53.300558,14.502158
1784738850.8561,09:47:30.856,26,false,0.592216,-0.284119,0.572754,0.490417,0.960464,-0.234379,-0.18555,-21.066629,-53.4137,14.637049
1784738850.8872,09:47:30.887,27,false,0.592237,-0.284058,0.572815,0.490356,0.970718,-0.239261,-0.187015,-21.053504,-53.500575,14.564051
1784738850.9186,09:47:30.918,28,false,0.592078,-0.284302,0.572754,0.490479,0.971695,-0.23975,-0.184085,-20.937015,-53.713346,14.498354
1784738850.9499,09:47:30.949,29,false,0.592034,-0.284058,0.573181,0.490173,0.954116,-0.225101,-0.183597,-20.847128,-53.78521,14.633625
1784738850.9812,09:47:30.981,30,false,0.591734,-0.283875,0.573425,0.490356,0.958022,-0.230472,-0.179202,-20.885861,-53.805026,14.680601
1784738851.0126,09:47:31.012,31,false,0.591385,-0.283386,0.573975,0.490417,0.965835,-0.237797,-0.177249,-20.950628,-53.867722,14.752786
1784738851.0439,09:47:31.043,0,false,0.591245,-0.282776,0.574524,0.490295,0.965347,-0.23389,-0.180667,-20.934149,-53.954055,14.787846
1784738851.0753,09:47:31.075,1,false,0.591134,-0.282654,0.574646,0.490356,0.963882,-0.238773,-0.175784,-20.979133,-54.16634,14.879215
1784738851.1064,09:47:31.106,2,false,0.591273,-0.282166,0.574951,0.490112,0.969741,-0.238285,-0.183108,-20.929896,-54.148043,14.9764
1784738851.1375,09:47:31.137,3,false,0.591535,-0.28186,0.575195,0.489685,0.959487,-0.239261,-0.172366,-21.079983,-54.161483,15.048914
1784738851.1687,09:47:31.168,4,false,0.591926,-0.281799,0.575134,0.489319,0.975113,-0.236332,-0.189944,-21.215061,-54.128718,14.93473
1784738851.1998,09:47:31.199,5,false,0.591885,-0.281799,0.575073,0.489441,0.965347,-0.22266,-0.188968,-21.246908,-54.159044,14.846918
1784738851.231,09:47:31.231,6,false,0.591701,-0.281494,0.575256,0.489624,0.972183,-0.248051,-0.187015,-21.350339,-54.186338,14.767887
1784738851.2621,09:47:31.262,7,false,0.591571,-0.280334,0.576111,0.489441,0.973648,-0.247074,-0.177737,-21.293889,-54.136133,14.771529
1784738851.2934,09:47:31.293,8,false,0.591595,-0.279541,0.576782,0.489075,0.95314,-0.235843,-0.180179,-21.317854,-54.270395,14.879483
1784738851.3248,09:47:31.324,9,false,0.591795,-0.278564,0.577515,0.488525,0.971206,-0.260746,-0.16846,-21.324468,-54.331416,14.961688
1784738851.3561,09:47:31.356,10,false,0.592444,-0.27655,0.578796,0.487366,0.952651,-0.241703,-0.171878,-21.285559,-54.386334,15.035673
1784738851.3875,09:47:31.387,11,false,0.593208,-0.27533,0.579468,0.486328,0.972183,-0.244633,-0.175296,-21.295402,-54.375945,15.027489
1784738851.4188,09:47:31.418,12,false,0.594484,-0.27301,0.580994,0.484253,0.973648,-0.269047,-0.168948,-21.319215,-54.456318,15.005171
1784738851.4501,09:47:31.450,13,false,0.594875,-0.272156,0.581604,0.483521,0.975113,-0.252445,-0.176761,-21.250924,-54.618377,15.000038
1784738851.4813,09:47:31.481,14,false,0.596978,-0.269104,0.583496,0.480347,0.959976,-0.235355,-0.154788,-21.1446,-54.719368,15.070187
1784738851.5124,09:47:31.512,15,false,0.598704,-0.267151,0.584778,0.477722,0.958511,-0.256352,-0.169436,-21.108724,-54.795306,15.043599
1784738851.5436,09:47:31.543,16,false,0.600788,-0.263733,0.587463,0.473694,0.972183,-0.244633,-0.166506,-21.01662,-54.803836,15.064531
1784738851.5747,09:47:31.574,17,false,0.602425,-0.260925,0.589539,0.470581,0.954604,-0.244633,-0.154299,-21.068311,-54.946096,15.143185
1784738851.6058,09:47:31.605,18,false,0.60425,-0.257751,0.591492,0.467529,0.938491,-0.248539,-0.144533,-20.950341,-55.014316,15.19902
1784738851.637,09:47:31.637,19,false,0.60739,-0.252258,0.594238,0.462952,0.953628,-0.252445,-0.163088,-20.844168,-55.195344,15.309087
1784738851.6683,09:47:31.668,20,false,0.609355,-0.247864,0.596252,0.460144,0.952163,-0.260258,-0.162112,-20.763566,-55.373223,15.393193
1784738851.6997,09:47:31.699,21,false,0.611158,-0.243469,0.598328,0.457397,0.956558,-0.264164,-0.158206,-20.855516,-55.473499,15.558611
1784738851.731,09:47:31.731,22,false,0.613953,-0.237244,0.601257,0.453064,0.965835,-0.275883,-0.151369,-20.758826,-55.608609,15.602811
1784738851.7623,09:47:31.762,23,false,0.615217,-0.233948,0.603088,0.450623,0.973648,-0.260746,-0.157229,-20.761527,-56.044238,15.627637
1784738851.7937,09:47:31.793,24,false,0.617449,-0.229492,0.605286,0.446899,0.953628,-0.273442,-0.14258,-20.659281,-56.241905,15.575212
1784738851.8248,09:47:31.824,25,false,0.619225,-0.226257,0.606262,0.444763,0.940444,-0.280278,-0.142092,-20.537353,-56.55439,15.76729
1784738851.856,09:47:31.856,26,false,0.621335,-0.222473,0.606934,0.44281,0.938003,-0.274418,-0.171878,-20.487432,-56.77581,15.805576
1784738851.8871,09:47:31.887,27,false,0.625258,-0.216736,0.606934,0.440125,0.946304,-0.246586,-0.19971,-20.457457,-57.109674,15.795172
1784738851.9182,09:47:31.918,28,false,0.627811,-0.213074,0.606567,0.438782,0.946304,-0.271489,-0.193851,-20.400573,-57.365289,15.785808
1784738851.9494,09:47:31.949,29,false,0.631707,-0.20697,0.605957,0.436951,0.935073,-0.282231,-0.210452,-20.229746,-57.714974,15.807288
1784738851.9805,09:47:31.980,30,false,0.633246,-0.204773,0.605713,0.436096,0.946304,-0.306157,-0.224125,-20.255447,-57.939967,15.946251
1784738852.0118,09:47:32.011,31,false,0.637741,-0.199524,0.604675,0.433411,0.949233,-0.277348,-0.235843,-20.00941,-58.277045,15.936733
1784738852.0432,09:47:32.043,0,false,0.640604,-0.196838,0.603882,0.431519,0.961929,-0.265629,-0.240238,-19.92256,-58.565462,15.913213
1784738852.0745,09:47:32.074,1,false,0.644585,-0.192932,0.602905,0.428711,0.952651,-0.270024,-0.23389,-19.754673,-58.989529,15.906999
1784738852.1059,09:47:32.105,2,false,0.647104,-0.190369,0.602234,0.427002,0.949233,-0.255375,-0.226078,-19.648436,-59.281466,15.991129
1784738852.1372,09:47:32.137,3,false,0.64962,-0.187866,0.601563,0.425232,0.949233,-0.264652,-0.230472,-19.522915,-59.648887,15.917308
1784738852.1686,09:47:32.168,4,false,0.653576,-0.183838,0.600586,0.422302,0.942885,-0.246586,-0.244144,-19.35013,-60.084242,16.045269
1784738852.1999,09:47:32.199,5,false,0.656067,-0.181152,0.600098,0.420288,0.95021,-0.251469,-0.246586,-19.329209,-60.341478,16.220249
1784738852.231,09:47:32.231,6,false,0.658116,-0.178406,0.599915,0.418518,0.941909,-0.249516,-0.243656,-19.340288,-60.543082,16.302962
1784738852.2622,09:47:32.262,7,false,0.660722,-0.174988,0.59967,0.416199,0.955093,-0.254887,-0.240726,-19.275489,-60.903972,16.422266
1784738852.2933,09:47:32.293,8,false,0.66198,-0.172974,0.59967,0.415039,0.968765,-0.260746,-0.245609,-19.067632,-61.228772,16.589454
1784738852.3245,09:47:32.324,9,false,0.663415,-0.170959,0.599548,0.413757,0.952163,-0.25098,-0.227054,-18.985237,-61.565955,16.724969
1784738852.3556,09:47:32.355,10,false,0.663893,-0.170349,0.599487,0.41333,0.939467,-0.25977,-0.238285,-18.94099,-61.91428,16.667487
1784738852.3867,09:47:32.386,11,false,0.665283,-0.168518,0.599304,0.412109,0.942397,-0.244144,-0.229007,-18.811444,-62.242727,16.780246
1784738852.4181,09:47:32.418,12,false,0.666115,-0.166809,0.599487,0.411194,0.949722,-0.250492,-0.228031,-18.724761,-62.508422,17.061174
1784738852.4494,09:47:32.449,13,false,0.666219,-0.165955,0.599609,0.411194,0.937514,-0.255863,-0.243656,-18.646746,-62.822316,17.388779
1784738852.4807,09:47:32.480,14,false,0.665796,-0.164795,0.599854,0.411987,0.943862,-0.278325,-0.231937,-18.471855,-63.209498,17.683624
1784738852.5121,09:47:32.512,15,false,0.665734,-0.164368,0.599915,0.41217,0.941421,-0.264164,-0.225589,-18.314454,-63.557961,17.904122
1784738852.5434,09:47:32.543,16,false,0.665629,-0.163269,0.600037,0.412598,0.946792,-0.285161,-0.231449,-18.262516,-63.811763,18.237156
1784738852.5746,09:47:32.574,17,false,0.667412,-0.159729,0.600891,0.409851,0.945327,-0.28809,-0.241215,-18.260633,-64.114954,18.462116
1784738852.6057,09:47:32.605,18,false,0.667142,-0.158997,0.601135,0.410217,0.944839,-0.267582,-0.232425,-18.288846,-64.432687,18.73935
1784738852.6368,09:47:32.636,19,false,0.668546,-0.155884,0.602051,0.407776,0.941909,-0.283696,-0.235843,-18.329191,-64.80837,19.078584
1784738852.668,09:47:32.668,20,false,0.66785,-0.155762,0.602234,0.408691,0.943374,-0.273442,-0.234379,-18.260825,-65.101623,19.339032
1784738852.6991,09:47:32.699,21,false,0.668171,-0.154175,0.602783,0.407959,0.938979,-0.277836,-0.231937,-18.124527,-65.559951,19.543528
1784738852.7303,09:47:32.730,22,false,0.667295,-0.154724,0.602661,0.409363,0.939956,-0.283696,-0.228031,-17.807458,-65.972446,19.832252
1784738852.7614,09:47:32.761,23,false,0.666471,-0.155029,0.602539,0.410767,0.946304,-0.27393,-0.235843,-17.761358,-66.209107,20.151918
1784738852.7927,09:47:32.792,24,false,0.667624,-0.152283,0.603333,0.408752,0.954604,-0.277348,-0.235355,-17.779683,-66.556686,20.529341
1784738852.8241,09:47:32.824,25,false,0.668533,-0.150513,0.60376,0.407288,0.937026,-0.293462,-0.250004,-17.826084,-66.959231,20.674622
1784738852.8554,09:47:32.855,26,false,0.666726,-0.151245,0.603882,0.40979,0.941421,-0.30811,-0.238285,-17.808029,-67.186936,20.954913
1784738852.8868,09:47:32.886,27,false,0.666072,-0.151489,0.604004,0.410583,0.933608,-0.273442,-0.247562,-17.71701,-67.436733,21.252036
1784738852.9181,09:47:32.918,28,false,0.666245,-0.150452,0.604858,0.409424,0.937514,-0.253422,-0.23975,-17.784631,-67.691457,21.579262
1784738852.9494,09:47:32.949,29,false,0.664837,-0.151855,0.60498,0.411011,0.933608,-0.266606,-0.236332,-17.845491,-67.965571,21.739182
1784738852.9808,09:47:32.980,30,false,0.662209,-0.153198,0.605652,0.413757,0.936538,-0.276371,-0.227543,-17.825495,-68.092642,21.913017
1784738853.0119,09:47:33.011,31,false,0.660883,-0.153931,0.606079,0.414978,0.930678,-0.277348,-0.210941,-17.882268,-68.251868,22.248914
1784738853.0431,09:47:33.043,0,false,0.659619,-0.15509,0.606323,0.416199,0.94728,-0.301274,-0.207523,-17.888502,-68.35031,22.551222
1784738853.0742,09:47:33.074,1,false,0.657795,-0.156311,0.606689,0.418091,0.95021,-0.299809,-0.209964,-18.043651,-68.558538,22.86816
1784738853.1053,09:47:33.105,2,false,0.656644,-0.157227,0.606689,0.419556,0.943862,-0.28809,-0.227543,-17.92907,-68.805759,23.183313
1784738853.1365,09:47:33.136,3,false,0.655252,-0.158997,0.606506,0.421326,0.931655,-0.28809,-0.217288,-17.840901,-69.058166,23.481904
1784738853.1678,09:47:33.167,4,false,0.654349,-0.160217,0.60614,0.422791,0.958022,-0.294926,-0.227054,-17.821364,-69.225516,23.660913
1784738853.1992,09:47:33.199,5,false,0.653149,-0.161377,0.606018,0.424377,0.943862,-0.284184,-0.224125,-17.863597,-69.286409,24.09119
1784738853.2305,09:47:33.230,6,false,0.651456,-0.16333,0.605774,0.426575,0.93019,-0.266606,-0.220706,-17.737113,-69.445889,24.343854
1784738853.2618,09:47:33.261,7,false,0.65018,-0.165222,0.605469,0.428223,0.937514,-0.272465,-0.213382,-17.802724,-69.649236,24.616114
1784738853.2932,09:47:33.293,8,false,0.648925,-0.166992,0.604858,0.430298,0.938979,-0.277348,-0.198734,-17.876728,-69.817295,24.950871
1784738853.3243,09:47:33.324,9,false,0.647058,-0.169189,0.603455,0.434204,0.938491,-0.276371,-0.212406,-17.77884,-69.833963,25.132522
1784738853.3555,09:47:33.355,10,false,0.645886,-0.170959,0.602051,0.437195,0.940444,-0.305669,-0.217288,-17.630924,-70.013457,25.236192
1784738853.3866,09:47:33.386,11,false,0.644315,-0.17395,0.600159,0.440918,0.955093,-0.304204,-0.213382,-17.602478,-70.175001,25.553803
1784738853.4177,09:47:33.417,12,false,0.643896,-0.174805,0.599731,0.441772,0.948745,-0.299809,-0.230961,-17.666598,-70.39516,25.764883
1784738853.4489,09:47:33.448,13,false,0.642077,-0.177124,0.599243,0.444153,0.948257,-0.296391,-0.224613,-17.634584,-70.563396,25.984763
1784738853.48,09:47:33.480,14,false,0.640876,-0.178406,0.599243,0.445374,0.94435,-0.290532,-0.217288,-17.635679,-70.580223,26.137794
1784738853.5112,09:47:33.511,15,false,0.639164,-0.180359,0.599487,0.446716,0.946304,-0.263188,-0.218265,-17.711434,-70.625276,26.335336
1784738853.5425,09:47:33.542,16,false,0.63765,-0.181519,0.599792,0.447998,0.955581,-0.266606,-0.222171,-17.600167,-70.7705,26.498171
1784738853.5738,09:47:33.573,17,false,0.635457,-0.182861,0.600159,0.450073,0.967788,-0.305669,-0.220218,-17.739288,-70.931109,26.569953
1784738853.6052,09:47:33.605,18,false,0.632265,-0.185669,0.600464,0.453003,0.938491,-0.311528,-0.206546,-17.75982,-71.060703,26.694372
1784738853.6365,09:47:33.636,19,false,0.630439,-0.188416,0.600098,0.454895,0.939467,-0.311528,-0.192386,-17.718484,-71.042754,26.821303
1784738853.6679,09:47:33.667,20,false,0.62889,-0.191284,0.599609,0.456482,0.937514,-0.29688,-0.204593,-17.785958,-71.116322,26.920588
1784738853.6992,09:47:33.699,21,false,0.626029,-0.194946,0.598999,0.459656,0.932631,-0.30518,-0.196292,-17.592469,-71.24235,26.92022
1784738853.7305,09:47:33.730,22,false,0.624134,-0.197205,0.598877,0.461426,0.941421,-0.321782,-0.180179,-17.747314,-71.266051,27.03952
1784738853.7617,09:47:33.761,23,false,0.622087,-0.201172,0.598083,0.463501,0.94435,-0.288579,-0.190921,-17.75209,-71.272428,27.176798
1784738853.7928,09:47:33.792,24,false,0.621315,-0.202271,0.5979,0.464294,0.945815,-0.273442,-0.209964,-17.831157,-71.233306,27.330256
1784738853.824,09:47:33.824,25,false,0.61796,-0.205017,0.597778,0.467712,0.936538,-0.289067,-0.184085,-17.887364,-71.332681,27.453414
1784738853.8551,09:47:33.855,26,false,0.615665,-0.206787,0.597717,0.470032,0.939956,-0.298344,-0.195315,-17.893088,-71.347349,27.743703
1784738853.8862,09:47:33.886,27,false,0.612248,-0.209961,0.597229,0.473694,0.93312,-0.316899,-0.194339,-17.928148,-71.420366,27.735793
1784738853.9174,09:47:33.917,28,false,0.608698,-0.213928,0.596191,0.477783,0.939467,-0.31397,-0.20264,-17.974656,-71.501035,27.818397
1784738853.9487,09:47:33.948,29,false,0.607652,-0.215393,0.595703,0.479065,0.948257,-0.319341,-0.216312,-17.941744,-71.528775,27.817972
1784738853.9801,09:47:33.980,30,false,0.604227,-0.219604,0.594543,0.48291,0.940444,-0.318364,-0.19971,-17.94203,-71.553741,27.892359
1784738854.0114,09:47:34.011,31,false,0.601903,-0.222595,0.59375,0.485413,0.934585,-0.300786,-0.198734,-17.927334,-71.606119,27.944353
1784738854.0427,09:47:34.042,0,false,0.598357,-0.228271,0.591919,0.48938,0.937026,-0.294926,-0.19678,-17.95897,-71.578489,27.841609
1784738854.0741,09:47:34.074,1,false,0.59576,-0.231873,0.590759,0.492249,0.949233,-0.30811,-0.206546,-17.94258,-71.58353,27.853816
1784738854.1054,09:47:34.105,2,false,0.593105,-0.234985,0.589905,0.494995,0.942397,-0.294438,-0.187015,-18.002598,-71.55816,28.014341
1784738854.1368,09:47:34.136,3,false,0.589269,-0.239868,0.58844,0.498962,0.930678,-0.303227,-0.184573,-17.966892,-71.55028,27.964414
1784738854.1679,09:47:34.167,4,false,0.587417,-0.243225,0.587097,0.501099,0.937026,-0.315435,-0.174807,-18.099248,-71.603004,27.754987
1784738854.199,09:47:34.199,5,false,0.585335,-0.24646,0.585632,0.503662,0.942397,-0.285649,-0.201663,-18.023969,-71.605593,27.67118
1784738854.2302,09:47:34.230,6,false,0.582277,-0.250732,0.583862,0.507141,0.935073,-0.286137,-0.20264,-17.911356,-71.443432,27.50603
1784738854.2613,09:47:34.261,7,false,0.580394,-0.253784,0.582397,0.50946,0.939956,-0.301762,-0.194827,-17.810004,-71.342348,27.506934
1784738854.2924,09:47:34.292,8,false,0.577652,-0.259155,0.57959,0.513062,0.93312,-0.290043,-0.214847,-17.808511,-71.296234,27.418025
1784738854.3238,09:47:34.323,9,false,0.576657,-0.261292,0.57843,0.514404,0.954116,-0.325689,-0.208011,-17.926798,-71.254731,27.188467
1784738854.3551,09:47:34.355,10,false,0.573975,-0.268127,0.574524,0.51825,0.956069,-0.348638,-0.224125,-17.928579,-71.202425,26.922051
1784738854.3865,09:47:34.386,11,false,0.572975,-0.27301,0.571838,0.519775,0.960952,-0.319829,-0.169436,-18.004951,-70.975904,26.801906
1784738854.4178,09:47:34.417,12,false,0.572439,-0.281067,0.566895,0.521484,0.946304,-0.336919,-0.238285,-18.148456,-70.921573,26.469469
1784738854.4491,09:47:34.449,13,false,0.57247,-0.286438,0.56366,0.522034,0.955093,-0.204105,-0.217777,-18.307517,-70.73809,26.23009
1784738854.4805,09:47:34.480,14,false,0.572844,-0.291992,0.560364,0.522095,0.934096,-0.193362,-0.19971,-18.331042,-70.528094,26.149234
1784738854.5118,09:47:34.511,15,false,0.572777,-0.299133,0.555908,0.522888,0.957534,-0.228031,-0.207523,-18.471845,-70.279283,25.897018
1784738854.543,09:47:34.543,16,false,0.571542,-0.304321,0.552917,0.524414,0.9673,-0.229496,-0.208011,-18.643429,-69.920768,25.595254
1784738854.5741,09:47:34.574,17,false,0.570127,-0.310059,0.5495,0.526184,0.954604,-0.235843,-0.199222,-18.693178,-69.628012,25.323666
1784738854.6052,09:47:34.605,18,false,0.568986,-0.314697,0.546692,0.527588,0.965835,-0.240726,-0.209964,-18.902444,-69.244901,24.944653
1784738854.6364,09:47:34.636,19,false,0.568193,-0.319641,0.543518,0.528748,0.958999,-0.236332,-0.201663,-18.776753,-68.885147,24.588587
1784738854.6675,09:47:34.667,20,false,0.568364,-0.326416,0.538757,0.529297,0.985367,-0.183108,-0.200198,-18.902892,-68.651092,24.327943
1784738854.6989,09:47:34.698,21,false,0.56721,-0.33252,0.534058,0.531494,0.9673,-0.201175,-0.201175,-18.98651,-68.246042,23.794286
1784738854.7302,09:47:34.730,22,false,0.56649,-0.338562,0.52887,0.53363,0.97023,-0.178225,-0.210452,-19.106628,-68.060944,23.478488
1784738854.7615,09:47:34.761,23,false,0.566344,-0.347412,0.52063,0.536194,0.995621,-0.164553,-0.225589,-19.169872,-67.714909,23.179315
1784738854.7929,09:47:34.792,24,false,0.566558,-0.352966,0.515503,0.537292,0.982925,-0.156741,-0.237797,-19.346423,-67.358616,22.670799
1784738854.824,09:47:34.824,25,false,0.563865,-0.363464,0.506287,0.54187,0.967788,-0.148928,-0.232914,-19.490364,-66.978137,22.272949
1784738854.8552,09:47:34.855,26,false,0.562977,-0.366638,0.50354,0.543213,0.97023,-0.146975,-0.235355,-19.485327,-66.575891,21.929838
1784738854.8863,09:47:34.886,27,false,0.560048,-0.375427,0.495911,0.547241,0.960464,-0.081544,-0.212406,-19.540609,-66.049376,21.576177
1784738854.9174,09:47:34.917,28,false,0.55916,-0.380615,0.491455,0.548584,0.964858,-0.079103,-0.215824,-19.665132,-65.620375,21.287789
1784738854.9486,09:47:34.948,29,false,0.557283,-0.388123,0.484802,0.551147,0.968765,-0.093263,-0.215335,-19.762249,-65.144551,20.938518
1784738854.9797,09:47:34.979,30,false,0.55538,-0.392456,0.480347,0.553894,0.96144,-0.095705,-0.236332,-19.90947,-64.761171,20.504542
1784738855.0109,09:47:35.010,31,false,0.551333,-0.397827,0.474976,0.558716,0.992203,-0.104005,-0.225589,-19.982153,-64.14696,20.233595
1784738855.042,09:47:35.042,0,false,0.545451,-0.40509,0.467773,0.565308,0.974136,-0.094728,-0.234379,-20.077475,-63.489493,19.914973
1784738855.0733,09:47:35.073,1,false,0.541957,-0.409424,0.463379,0.569153,0.979507,-0.06836,-0.232425,-19.98382,-62.92768,19.523537
1784738855.1047,09:47:35.104,2,false,0.538929,-0.413025,0.459106,0.572876,0.974136,-0.075196,-0.240238,-20.004206,-62.46691,19.201152
1784738855.136,09:47:35.136,3,false,0.535679,-0.416077,0.454163,0.577637,0.958022,-0.080568,-0.234379,-19.947785,-61.977448,18.776421
1784738855.1674,09:47:35.167,4,false,0.535655,-0.415527,0.452515,0.579346,0.988785,-0.086915,-0.271,-19.956821,-61.477117,18.334348
1784738855.1987,09:47:35.198,5,false,0.539958,-0.411133,0.45282,0.578247,0.979995,-0.09131,-0.261723,-19.815415,-61.131496,18.08602
1784738855.23,09:47:35.230,6,false,0.541135,-0.409485,0.453064,0.578125,0.996597,-0.121584,-0.276371,-19.747966,-60.850344,17.742895
1784738855.2614,09:47:35.261,7,false,0.544302,-0.403564,0.4552,0.577637,0.965835,-0.127443,-0.282719,-19.642399,-60.477677,17.38922
1784738855.2927,09:47:35.292,8,false,0.54732,-0.397522,0.45874,0.576172,0.955581,-0.124025,-0.271977,-19.592251,-60.187139,16.996144
1784738855.3239,09:47:35.323,9,false,0.549234,-0.393433,0.461426,0.575012,0.949233,-0.12549,-0.291508,-19.577025,-59.925654,16.717144
1784738855.355,09:47:35.355,10,false,0.553659,-0.387268,0.464905,0.572144,0.963882,-0.11426,-0.278813,-19.59323,-59.735179,16.585676
1784738855.3861,09:47:35.386,11,false,0.555022,-0.385254,0.466003,0.571289,0.973648,-0.124514,-0.289555,-19.547999,-59.474028,16.317815
1784738855.4175,09:47:35.417,12,false,0.558498,-0.379211,0.469482,0.569092,0.969741,-0.108888,-0.297368,-19.58206,-59.313762,16.106649
1784738855.4488,09:47:35.448,13,false,0.560772,-0.375671,0.471313,0.567688,0.94435,-0.085451,-0.302739,-19.448222,-59.184476,15.871737
1784738855.4802,09:47:35.480,14,false,0.564442,-0.37146,0.474365,0.56427,0.943374,-0.11426,-0.301762,-19.522169,-59.053165,15.675271
1784738855.5115,09:47:35.511,15,false,0.567232,-0.368713,0.476074,0.561829,0.968765,-0.117189,-0.291508,-19.573767,-58.920032,15.438636
1784738855.5428,09:47:35.542,16,false,0.570117,-0.366272,0.4776,0.559204,0.967788,-0.118654,-0.294926,-19.455712,-58.815165,15.240618
1784738855.5742,09:47:35.574,17,false,0.573162,-0.362976,0.479675,0.556458,0.96144,-0.14258,-0.287114,-19.424233,-58.720785,15.107263
1784738855.6053,09:47:35.605,18,false,0.574952,-0.360291,0.481323,0.554932,0.96437,-0.133303,-0.306645,-19.35104,-58.680705,14.837706
1784738855.6365,09:47:35.636,19,false,0.576877,-0.357544,0.483032,0.553223,0.959976,-0.134768,-0.29688,-19.270212,-58.510048,14.789504
1784738855.6676,09:47:35.667,20,false,0.579456,-0.353638,0.485535,0.550842,0.962417,-0.134768,-0.288579,-19.257283,-58.416272,14.626492
1784738855.6987,09:47:35.698,21,false,0.581163,-0.351135,0.487244,0.549133,0.9673,-0.145022,-0.290043,-19.2606,-58.272059,14.539596
1784738855.7299,09:47:35.729,22,false,0.583658,-0.3479,0.489868,0.546204,0.982437,-0.143069,-0.302251,-19.054232,-58.15722,14.551113
1784738855.761,09:47:35.761,23,false,0.584542,-0.346924,0.490662,0.545166,0.970718,-0.147951,-0.310063,-18.913362,-58.128635,14.41194
1784738855.7922,09:47:35.792,24,false,0.586622,-0.344666,0.492676,0.542542,0.971695,-0.143069,-0.290043,-18.921164,-58.162723,14.301637
1784738855.8235,09:47:35.823,25,false,0.587892,-0.343262,0.494019,0.540833,0.955093,-0.141115,-0.280278,-18.928185,-58.223311,14.127596
1784738855.8548,09:47:35.854,26,false,0.589972,-0.341187,0.495972,0.538086,0.954604,-0.145022,-0.280766,-18.829827,-58.00867,14.030775
1784738855.8862,09:47:35.886,27,false,0.591283,-0.339905,0.497009,0.536499,0.965347,-0.143069,-0.283207,-18.845983,-57.905217,14.033358
1784738855.9175,09:47:35.917,28,false,0.592897,-0.338379,0.49823,0.534546,0.972671,-0.166018,-0.28809,-18.830615,-57.901832,13.841284
1784738855.9489,09:47:35.948,29,false,0.595499,-0.336548,0.499695,0.531433,0.971695,-0.152346,-0.295415,-18.816783,-57.824016,13.803001
1784738855.9802,09:47:35.980,30,false,0.597486,-0.33551,0.50061,0.528992,0.972183,-0.14844,-0.294438,-18.759474,-57.768936,13.753593
1784738856.0113,09:47:36.011,31,false,0.600906,-0.333618,0.501892,0.525085,0.955581,-0.134279,-0.275395,-19.021926,-57.70441,13.84371
1784738856.0425,09:47:36.042,0,false,0.602936,-0.332397,0.502625,0.522827,0.967788,-0.114748,-0.293462,-18.944102,-57.451936,13.790231
1784738856.0736,09:47:36.073,1,false,0.6048,-0.331238,0.503052,0.520996,0.975601,-0.129885,-0.306157,-18.829199,-57.329387,13.7421
1784738856.1048,09:47:36.104,2,false,0.607628,-0.3302,0.50354,0.517883,0.971695,-0.106935,-0.307622,-18.800555,-57.323769,13.564197
1784738856.1359,09:47:36.135,3,false,0.609498,-0.330017,0.503967,0.515381,0.960952,-0.121096,-0.302739,-18.78973,-57.423391,13.523715
1784738856.167,09:47:36.167,4,false,0.611469,-0.329529,0.504639,0.512695,0.960952,-0.107424,-0.278813,-18.779987,-57.438281,13.666728
1784738856.1984,09:47:36.198,5,false,0.613948,-0.330322,0.505432,0.508423,0.98146,-0.086427,-0.256352,-19.025434,-57.391866,13.601039
1784738856.2297,09:47:36.229,6,false,0.614782,-0.331116,0.506287,0.506042,0.963394,-0.10547,-0.255863,-19.06689,-57.290278,13.556874
1784738856.2611,09:47:36.261,7,false,0.616123,-0.329346,0.508423,0.503418,0.953628,-0.141115,-0.252445,-19.164016,-57.288571,13.606847
1784738856.2924,09:47:36.292,8,false,0.61675,-0.328247,0.509338,0.502441,0.96437,-0.126955,-0.253422,-19.236475,-57.272082,13.711639
1784738856.3237,09:47:36.323,9,false,0.618376,-0.324707,0.512329,0.499695,0.974624,-0.135256,-0.260258,-19.226919,-57.302102,13.626505
1784738856.3551,09:47:36.355,10,false,0.620005,-0.320801,0.514954,0.497498,0.963882,-0.145022,-0.272953,-19.293088,-57.20949,13.609701
1784738856.3862,09:47:36.386,11,false,0.62287,-0.312317,0.520325,0.493713,0.973648,-0.160647,-0.272465,-19.292825,-57.260724,13.624484
1784738856.4174,09:47:36.417,12,false,0.624879,-0.305481,0.524841,0.490662,0.960952,-0.165042,-0.274907,-19.202865,-57.396558,13.727512
1784738856.4485,09:47:36.448,13,false,0.627224,-0.297546,0.530212,0.486755,0.971695,-0.166995,-0.280278,-19.151809,-57.369269,14.029591
1784738856.4796,09:47:36.479,14,false,0.630027,-0.285767,0.538757,0.480774,0.9673,-0.165042,-0.261234,-19.060996,-57.509202,14.062201
1784738856.5108,09:47:36.510,15,false,0.631751,-0.277649,0.5448,0.47644,0.958511,-0.169436,-0.256352,-19.068988,-57.769726,14.256042
1784738856.5419,09:47:36.541,16,false,0.63333,-0.269104,0.550781,0.472351,0.958511,-0.178714,-0.25684,-19.03132,-58.108875,14.430499
1784738856.5733,09:47:36.573,17,false,0.635114,-0.256348,0.559326,0.46698,0.956069,-0.166018,-0.240726,-18.96751,-58.563647,14.58751
1784738856.6046,09:47:36.604,18,false,0.63597,-0.248657,0.564392,0.463867,0.962417,-0.175296,-0.248051,-18.895128,-59.032757,14.968081
1784738856.6359,09:47:36.635,19,false,0.636688,-0.238037,0.570923,0.460449,0.954604,-0.194827,-0.239261,-18.829984,-59.410095,15.235826
1784738856.6673,09:47:36.667,20,false,0.637638,-0.23407,0.57312,0.458435,0.976577,-0.217288,-0.240238,-18.876031,-59.824468,15.476797
1784738856.6986,09:47:36.698,21,false,0.640292,-0.224976,0.578674,0.452271,0.974136,-0.240726,-0.224613,-18.90252,-60.331988,15.678717
1784738856.7298,09:47:36.729,22,false,0.641842,-0.219604,0.58252,0.447754,0.958022,-0.25684,-0.213382,-18.866544,-60.699034,15.905306
1784738856.7609,09:47:36.760,23,false,0.64339,-0.216553,0.58429,0.444702,0.955581,-0.265629,-0.215335,-18.879027,-61.163959,16.258775
1784738856.792,09:47:36.792,24,false,0.645561,-0.214478,0.585205,0.441345,0.951675,-0.249516,-0.225101,-18.935124,-61.53753,16.561943
1784738856.8232,09:47:36.823,25,false,0.645737,-0.214783,0.585083,0.441101,0.957534,-0.247562,-0.246586,-18.910842,-61.948514,16.715163
1784738856.8543,09:47:36.854,26,false,0.647615,-0.213623,0.585815,0.437927,0.961929,-0.232914,-0.232914,-18.918896,-62.36326,16.912877
1784738856.8854,09:47:36.885,27,false,0.647572,-0.213745,0.586365,0.437195,0.955093,-0.226078,-0.235355,-18.896236,-62.721578,17.150635
1784738856.9166,09:47:36.916,28,false,0.647242,-0.213135,0.587769,0.436096,0.965347,-0.22266,-0.225589,-18.935658,-63.059018,17.559017
1784738856.9479,09:47:36.947,29,false,0.646804,-0.211914,0.589233,0.435364,0.952163,-0.226566,-0.229007,-18.956184,-63.347761,17.836838
1784738856.9793,09:47:36.979,30,false,0.645976,-0.210083,0.591064,0.434998,0.962905,-0.232914,-0.225589,-18.795211,-63.622582,18.131738
1784738857.0106,09:47:37.010,31,false,0.645769,-0.205627,0.594238,0.433105,0.95021,-0.23682,-0.215824,-19.009228,-63.959645,18.456964
1784738857.0419,09:47:37.041,0,false,0.644865,-0.204529,0.595642,0.433044,0.971695,-0.238285,-0.229984,-19.007443,-64.21814,18.809482
1784738857.0733,09:47:37.073,1,false,0.643922,-0.204346,0.59668,0.433105,0.956069,-0.233402,-0.210941,-18.90116,-64.465739,19.037025
1784738857.1046,09:47:37.104,2,false,0.643714,-0.203308,0.59845,0.431458,0.954604,-0.23975,-0.197269,-18.984951,-64.748394,19.361445
1784738857.1358,09:47:37.135,3,false,0.642437,-0.204224,0.598938,0.432251,0.948745,-0.23975,-0.200198,-19.030455,-64.942968,19.668377
1784738857.1669,09:47:37.166,4,false,0.640463,-0.205688,0.599182,0.434143,0.951675,-0.229984,-0.195804,-18.921871,-65.192854,19.944615
1784738857.198,09:47:37.198,5,false,0.640759,-0.204956,0.599426,0.433716,0.946304,-0.220706,-0.188968,-19.003591,-65.612151,20.253045
1784738857.2292,09:47:37.229,6,false,0.639228,-0.205383,0.599365,0.435852,0.950698,-0.237797,-0.211917,-19.047231,-65.869887,20.575494
1784738857.2603,09:47:37.260,7,false,0.637348,-0.205994,0.599243,0.438477,0.940932,-0.244144,-0.216312,-19.116415,-66.191573,20.850744
1784738857.2915,09:47:37.291,8,false,0.633781,-0.207092,0.599731,0.442444,0.951186,-0.238285,-0.213382,-19.05905,-66.510998,21.173238
1784738857.3226,09:47:37.322,9,false,0.630999,-0.208069,0.600159,0.445374,0.952163,-0.257328,-0.209964,-19.022375,-66.75362,21.448529
1784738857.3539,09:47:37.353,10,false,0.628299,-0.209106,0.600586,0.44812,0.884779,-0.230961,-0.210452,-19.064137,-66.971979,21.651429
1784738857.3853,09:47:37.385,11,false,0.624206,-0.210449,0.601135,0.452454,0.961929,-0.324712,-0.179202,-19.011999,-67.213363,22.073301
1784738857.4166,09:47:37.416,12,false,0.621562,-0.211609,0.60144,0.455139,0.947768,-0.322759,-0.171389,-19.084707,-67.325932,22.273539
1784738857.448,09:47:37.448,13,false,0.619252,-0.213562,0.600769,0.458252,0.675792,-0.310063,-0.737804,-19.000605,-67.457152,22.304215
1784738857.4793,09:47:37.479,14,false,0.61788,-0.215698,0.600159,0.4599,0.965835,-0.285649,-0.191409,-18.805282,-67.65002,22.436501
1784738857.5104,09:47:37.510,15,false,0.616398,-0.217224,0.599915,0.461487,0.95021,-0.263676,-0.191897,-18.704261,-67.748831,22.52565
1784738857.5416,09:47:37.541,16,false,0.613337,-0.218994,0.600525,0.463928,0.949233,-0.257816,-0.187991,-18.598388,-67.867669,22.725515
1784738857.5727,09:47:37.572,17,false,0.610904,-0.219971,0.601135,0.465881,0.94728,-0.254398,-0.174319,-18.562918,-68.094253,23.039978
1784738857.6039,09:47:37.603,18,false,0.608096,-0.220581,0.601624,0.468628,0.958022,-0.34229,-0.152346,-18.680533,-68.447718,23.068779
1784738857.635,09:47:37.635,19,false,0.604498,-0.221436,0.601929,0.472473,0.940444,-0.350103,-0.16553,-18.532172,-68.526575,23.214332
1784738857.6661,09:47:37.666,20,false,0.603429,-0.222534,0.601685,0.473633,0.945327,-0.357427,-0.171878,-18.458462,-68.687269,23.375236
1784738857.6973,09:47:37.697,21,false,0.603323,-0.224976,0.601074,0.473389,0.951675,-0.31397,-0.169924,-18.347261,-68.757125,23.400419
1784738857.7286,09:47:37.728,22,false,0.603363,-0.22522,0.601135,0.473145,0.963882,-0.324224,-0.161135,-18.426627,-68.924671,23.557669
1784738857.76,09:47:37.760,23,false,0.603994,-0.225159,0.601196,0.47229,0.922377,-0.270512,-0.180667,-18.483102,-68.970787,23.714147
1784738857.7913,09:47:37.791,24,false,0.605467,-0.225586,0.600464,0.47113,0.946304,-0.274418,-0.185061,-18.429253,-69.042198,23.869932
1784738857.8226,09:47:37.822,25,false,0.606977,-0.2276,0.599182,0.469849,0.96437,-0.252445,-0.198245,-18.380788,-69.106469,23.935369
1784738857.854,09:47:37.854,26,false,0.606873,-0.228394,0.598938,0.46991,0.932631,-0.241215,-0.190921,-18.516617,-69.104496,23.979308
1784738857.8851,09:47:37.885,27,false,0.606131,-0.228821,0.598999,0.470581,0.921889,-0.238773,-0.179202,-18.608954,-69.341983,24.078669
1784738857.9163,09:47:37.916,28,false,0.605431,-0.22937,0.598633,0.47168,0.949233,-0.366705,-0.174807,-18.437843,-69.480952,24.242863
1784738857.9474,09:47:37.947,29,false,0.605339,-0.22998,0.597961,0.472351,0.966323,-0.365728,-0.173831,-18.373566,-69.620977,24.405591
1784738857.9785,09:47:37.978,30,false,0.605787,-0.231079,0.597229,0.472168,0.985367,-0.380377,-0.160647,-18.360578,-69.522693,24.552046
1784738858.0097,09:47:38.009,31,false,0.607759,-0.234924,0.595215,0.470276,0.952163,-0.304692,-0.184573,-18.318981,-69.568821,24.668902
1784738858.0408,09:47:38.040,0,false,0.610273,-0.239807,0.592468,0.468018,0.968276,-0.29395,-0.186038,-18.341359,-69.550522,24.714258
1784738858.0719,09:47:38.071,1,false,0.615816,-0.248535,0.587524,0.462402,0.909682,-0.180179,-0.181155,-18.48113,-69.429375,24.72517
1784738858.1033,09:47:38.103,2,false,0.617467,-0.250916,0.586121,0.460693,0.936049,-0.180179,-0.197269,-18.562063,-69.170805,24.660221
1784738858.1346,09:47:38.134,3,false,0.62127,-0.257446,0.582458,0.456604,0.943374,-0.1626,-0.201663,-18.724625,-68.953045,24.616721
1784738858.166,09:47:38.166,4,false,0.62432,-0.262695,0.579468,0.453247,0.959976,-0.136233,-0.209476,-18.930747,-68.7122,24.592525
1784738858.1973,09:47:38.197,5,false,0.625289,-0.265381,0.578247,0.451904,0.976089,-0.129885,-0.204105,-19.13121,-68.510393,24.585703
1784738858.2286,09:47:38.228,6,false,0.624855,-0.266724,0.578003,0.452026,0.974136,-0.153811,-0.201663,-19.266765,-68.313814,24.60947
1784738858.2598,09:47:38.259,7,false,0.624305,-0.266785,0.578186,0.452515,0.981949,-0.166018,-0.18262,-19.418673,-68.136892,24.660769
1784738858.2909,09:47:38.290,8,false,0.62145,-0.266357,0.57959,0.454895,0.963394,-0.188968,-0.181643,-19.420805,-68.067385,24.766752
1784738858.3221,09:47:38.322,9,false,0.619364,-0.265442,0.580994,0.456482,0.966812,-0.21973,-0.170413,-19.497493,-67.780521,24.817276
1784738858.3532,09:47:38.353,10,false,0.61674,-0.264099,0.58252,0.458862,0.967788,-0.227543,-0.171389,-19.521651,-67.836375,24.817886
1784738858.3843,09:47:38.384,11,false,0.615672,-0.263794,0.582825,0.460083,0.959976,-0.220218,-0.18555,-19.468623,-67.91655,24.743666
1784738858.4155,09:47:38.415,12,false,0.615174,-0.263428,0.58313,0.460571,0.970718,-0.217288,-0.16846,-19.390991,-67.973755,24.84136
1784738858.4466,09:47:38.446,13,false,0.614229,-0.262085,0.583862,0.46167,0.969253,-0.212406,-0.177249,-19.54543,-68.0701,24.809654
1784738858.478,09:47:38.478,14,false,0.613488,-0.260864,0.584656,0.462341,0.963394,-0.208011,-0.188479,-19.654517,-67.962411,24.930657
1784738858.5093,09:47:38.509,15,false,0.612658,-0.25946,0.585571,0.463074,0.975601,-0.200198,-0.195315,-19.618111,-68.000076,25.099375
1784738858.5406,09:47:38.540,16,false,0.610158,-0.257324,0.587524,0.465088,0.972671,-0.208988,-0.181155,-19.704976,-68.004066,25.071775
1784738858.572,09:47:38.572,17,false,0.608209,-0.256104,0.588867,0.466614,0.97023,-0.251469,-0.17969,-19.738293,-68.007657,25.076843
1784738858.6033,09:47:38.603,18,false,0.605641,-0.255249,0.590332,0.468567,0.974624,-0.252445,-0.176272,-19.81314,-67.966028,25.290758
1784738858.6347,09:47:38.634,19,false,0.604983,-0.255066,0.590698,0.469055,0.973159,-0.250004,-0.172854,-19.760872,-68.033238,25.378605
1784738858.6658,09:47:38.665,20,false,0.602778,-0.254761,0.591675,0.470825,0.959487,-0.228519,-0.177737,-19.803553,-68.153543,25.517482
1784738858.6969,09:47:38.696,21,false,0.601113,-0.254395,0.592407,0.472229,0.960952,-0.242679,-0.182132,-19.767197,-68.306679,25.567702
1784738858.7281,09:47:38.728,22,false,0.598348,-0.253235,0.593994,0.474365,0.947768,-0.252445,-0.186526,-19.689615,-68.414593,25.672716
1784738858.7592,09:47:38.759,23,false,0.596128,-0.252136,0.59552,0.47583,0.947768,-0.247562,-0.171878,-19.724469,-68.556578,25.797135
1784738858.7904,09:47:38.790,24,false,0.59377,-0.250916,0.596924,0.477661,0.943862,-0.277836,-0.174807,-19.800698,-68.534826,25.804436
1784738858.8215,09:47:38.821,25,false,0.590439,-0.249634,0.598755,0.480164,0.949233,-0.292973,-0.15967,-19.659951,-68.75451,25.751192
1784738858.8528,09:47:38.852,26,false,0.588685,-0.249023,0.599854,0.481262,0.941421,-0.282231,-0.159182,-19.593094,-68.817642,25.897672
1784738858.8842,09:47:38.884,27,false,0.586681,-0.248474,0.601013,0.482544,0.955093,-0.283207,-0.16553,-19.323568,-68.979137,26.01455
1784738858.9155,09:47:38.915,28,false,0.585236,-0.24762,0.60199,0.483521,0.957046,-0.311528,-0.155276,-19.290349,-69.094575,26.104787
1784738858.9469,09:47:38.946,29,false,0.58363,-0.246826,0.603088,0.484497,0.94728,-0.290043,-0.16846,-19.200637,-69.228377,26.096276
1784738858.9782,09:47:38.978,30,false,0.581039,-0.245422,0.604736,0.486267,0.945327,-0.314458,-0.157229,-19.015219,-69.363752,26.073663
1784738859.0093,09:47:39.009,31,false,0.579229,-0.244446,0.605835,0.487549,0.957046,-0.315923,-0.145998,-18.938066,-69.48559,26.053311
1784738859.0405,09:47:39.040,0,false,0.577691,-0.243408,0.606934,0.488525,0.940932,-0.332525,-0.143557,-18.808812,-69.640106,26.154626
1784738859.0716,09:47:39.071,1,false,0.575316,-0.242371,0.608521,0.489868,0.938003,-0.335943,-0.144533,-18.842023,-69.749262,26.245808
1784738859.1028,09:47:39.102,2,false,0.573807,-0.241516,0.609497,0.490845,0.951675,-0.341802,-0.148928,-18.692466,-69.937226,26.312919
1784738859.1339,09:47:39.133,3,false,0.572351,-0.23999,0.610779,0.491699,0.939467,-0.341802,-0.137209,-18.722357,-70.106393,26.448088
1784738859.165,09:47:39.165,4,false,0.571955,-0.239502,0.611145,0.491943,0.938491,-0.341314,-0.142092,-18.644583,-70.273598,26.480017
1784738859.1962,09:47:39.196,5,false,0.570774,-0.238159,0.612183,0.492676,0.935561,-0.357427,-0.144533,-18.544678,-70.319405,26.583522
1784738859.2275,09:47:39.227,6,false,0.570042,-0.237366,0.612976,0.49292,0.938003,-0.352544,-0.134279,-18.379994,-70.465309,26.736492
1784738859.2588,09:47:39.258,7,false,0.569199,-0.236389,0.614136,0.49292,0.935073,-0.363775,-0.140627,-18.246732,-70.626529,26.904073
1784738859.2902,09:47:39.290,8,false,0.569091,-0.236206,0.614502,0.492676,0.935561,-0.335454,-0.135744,-18.186613,-70.637043,26.785726
1784738859.3215,09:47:39.321,9,false,0.568922,-0.236328,0.614563,0.492737,0.939956,-0.341314,-0.134768,-18.147458,-70.781091,26.903522
1784738859.3529,09:47:39.352,10,false,0.568722,-0.236206,0.614746,0.492798,0.931655,-0.347173,-0.135744,-18.067358,-70.791102,27.084307
1784738859.3842,09:47:39.384,11,false,0.568859,-0.235718,0.615051,0.492493,0.934585,-0.345708,-0.129397,-18.040129,-70.874882,27.172245
1784738859.4155,09:47:39.415,12,false,0.568662,-0.235779,0.615356,0.49231,0.943374,-0.350103,-0.119142,-18.075439,-71.010099,27.086896
1784738859.4469,09:47:39.446,13,false,0.568501,-0.235657,0.615845,0.491943,0.934585,-0.354009,-0.131838,-18.002541,-70.99721,27.039991
1784738859.478,09:47:39.478,14,false,0.568237,-0.235718,0.615967,0.492065,0.943862,-0.357916,-0.123049,-17.921978,-71.075333,27.117406
1784738859.5092,09:47:39.509,15,false,0.568159,-0.235779,0.615967,0.492126,0.943374,-0.349126,-0.134279,-17.834519,-71.235367,27.172126
1784738859.5403,09:47:39.540,16,false,0.568108,-0.235901,0.615967,0.492126,0.935561,-0.350591,-0.132326,-17.890389,-71.289674,27.311097
1784738859.5714,09:47:39.571,17,false,0.568278,-0.236511,0.615723,0.491943,0.946304,-0.336919,-0.125002,-17.835996,-71.428274,27.271679
1784738859.6028,09:47:39.602,18,false,0.568147,-0.237366,0.615417,0.492065,0.934585,-0.319829,-0.124514,-17.682365,-71.373567,27.236202
1784738859.6341,09:47:39.634,19,false,0.568266,-0.237427,0.615479,0.491821,0.943374,-0.332036,-0.134279,-17.768405,-71.3991,27.413627
1784738859.6655,09:47:39.665,20,false,0.568059,-0.237671,0.615479,0.491943,0.938979,-0.354009,-0.129397,-17.890702,-71.466942,27.513495
1784738859.6968,09:47:39.696,21,false,0.568021,-0.237793,0.615417,0.492004,0.946792,-0.369635,-0.123049,-17.896093,-71.498092,27.394021
1784738859.7281,09:47:39.728,22,false,0.568682,-0.238831,0.614746,0.491577,0.95314,-0.348638,-0.136233,-17.930852,-71.660711,27.450987
1784738859.7595,09:47:39.759,23,false,0.569915,-0.239624,0.614075,0.490601,0.945327,-0.328618,-0.139162,-17.962136,-71.762207,27.472349
1784738859.7908,09:47:39.790,24,false,0.571348,-0.241577,0.61261,0.489807,0.927749,-0.329595,-0.137209,-18.094968,-71.718969,27.416806
1784738859.822,09:47:39.822,25,false,0.572609,-0.243347,0.611267,0.489136,0.938003,-0.316899,-0.124025,-18.10984,-71.530516,27.516355
1784738859.8531,09:47:39.853,26,false,0.573816,-0.245789,0.609497,0.488708,0.934585,-0.354986,-0.135256,-18.197994,-71.390816,27.53118
1784738859.8842,09:47:39.884,27,false,0.576745,-0.250488,0.605835,0.487427,0.929213,-0.341802,-0.136233,-18.30724,-71.265086,27.469754
1784738859.9154,09:47:39.915,28,false,0.580068,-0.253418,0.602661,0.485901,0.949233,-0.349126,-0.146487,-18.405561,-71.151929,27.489239
1784738859.9465,09:47:39.946,29,false,0.583882,-0.256714,0.599243,0.483826,0.959976,-0.353521,-0.151369,-18.404328,-71.005226,27.372191
1784738859.9779,09:47:39.977,30,false,0.591129,-0.263184,0.593323,0.478821,0.983902,-0.357916,-0.139651,-18.403217,-70.828332,27.162171
1784738860.0092,09:47:40.009,31,false,0.596814,-0.267761,0.589294,0.474182,0.968765,-0.354009,-0.117678,-18.506895,-70.519589,27.018015
1784738860.0405,09:47:40.040,0,false,0.607579,-0.275024,0.582397,0.464783,0.951186,-0.257816,-0.125002,-18.66002,-70.226766,26.828459
1784738860.0719,09:47:40.071,1,false,0.61162,-0.27771,0.579895,0.460999,0.986343,-0.165042,-0.139651,-18.693156,-69.858549,26.762535
1784738860.1032,09:47:40.103,2,false,0.624112,-0.285706,0.571411,0.449829,0.935073,-0.119631,-0.163088,-18.947286,-69.482292,26.523758
1784738860.1344,09:47:40.134,3,false,0.63338,-0.289978,0.564453,0.442871,0.940932,-0.087404,-0.185061,-19.325541,-68.994123,26.278951
1784738860.1657,09:47:40.165,4,false,0.647401,-0.29718,0.552246,0.433105,0.979507,0.002441,-0.22266,-19.636063,-68.390278,26.103485
1784738860.197,09:47:40.197,5,false,0.655258,-0.303101,0.543884,0.427734,0.955093,0.029786,-0.248539,-19.885626,-67.846817,25.945567
1784738860.2282,09:47:40.228,6,false,0.662566,-0.308777,0.5354,0.423096,0.941909,0.033692,-0.273442,-20.244816,-67.342749,25.683809
1784738860.2593,09:47:40.259,7,false,0.671823,-0.317749,0.522339,0.418152,1.011246,0.104005,-0.301762,-20.642857,-66.78441,25.313643
1784738860.2905,09:47:40.290,8,false,0.6757,-0.326172,0.513733,0.416077,1.019547,0.110353,-0.306645,-20.941278,-66.117414,25.070217
1784738860.3216,09:47:40.321,9,false,0.678345,-0.343201,0.500916,0.413696,1.000504,0.097169,-0.309575,-21.120134,-65.352624,24.641779
1784738860.3529,09:47:40.352,10,false,0.677978,-0.354431,0.493896,0.413269,1.004898,0.080079,-0.308598,-21.385782,-64.694222,24.405723
1784738860.3843,09:47:40.384,11,false,0.676168,-0.363708,0.488892,0.414124,0.979995,0.080568,-0.289555,-21.68468,-63.937167,23.998874
1784738860.4156,09:47:40.415,12,false,0.671511,-0.372375,0.485291,0.418213,0.961929,0.028809,-0.251469,-21.878919,-63.106279,23.662616
1784738860.447,09:47:40.447,13,false,0.668179,-0.374146,0.485413,0.421814,0.961929,0.020996,-0.265629,-22.143457,-62.388388,23.449708
1784738860.4783,09:47:40.478,14,false,0.665616,-0.373474,0.487,0.424622,0.975601,0.044923,-0.258793,-22.246956,-61.861917,23.093598
1784738860.5096,09:47:40.509,15,false,0.663811,-0.369629,0.491577,0.425537,0.978531,0.078614,-0.261234,-22.295245,-61.522677,23.012361
1784738860.5408,09:47:40.540,16,false,0.662988,-0.367798,0.493896,0.42572,0.966323,0.099611,-0.260258,-22.368612,-61.037915,22.655124
1784738860.5719,09:47:40.571,17,false,0.661794,-0.36853,0.495056,0.425598,0.986343,0.097658,-0.240726,-22.509411,-60.60163,22.513057
1784738860.6031,09:47:40.603,18,false,0.661349,-0.369446,0.495178,0.425354,0.972671,0.09424,-0.235843,-22.740808,-60.149157,22.430058
1784738860.6342,09:47:40.634,19,false,0.660116,-0.374084,0.493652,0.424988,0.988785,0.039063,-0.234379,-22.874296,-59.77184,22.400221
1784738860.6653,09:47:40.665,20,false,0.660347,-0.376099,0.492126,0.424622,0.994156,0.043458,-0.245121,-22.994435,-59.402346,22.328506
1784738860.6965,09:47:40.696,21,false,0.66138,-0.377808,0.490479,0.423401,0.980484,0.069337,-0.237308,-23.207236,-59.219341,22.084516
1784738860.7278,09:47:40.727,22,false,0.662309,-0.378113,0.48999,0.422241,0.881849,0.097169,-0.243656,-23.338943,-59.024728,21.894833
1784738860.7592,09:47:40.759,23,false,0.664,-0.377502,0.489746,0.42041,0.974624,0.130861,-0.270024,-23.352802,-58.789761,21.754026
1784738860.7905,09:47:40.790,24,false,0.665196,-0.375244,0.491943,0.417969,0.95021,0.16553,-0.218265,-23.42509,-58.548383,21.687115
1784738860.8218,09:47:40.821,25,false,0.665432,-0.372925,0.494263,0.416931,0.971695,0.133791,-0.224613,-23.430334,-58.390958,21.746526
1784738860.8532,09:47:40.853,26,false,0.666377,-0.369202,0.496704,0.415833,0.965835,0.09131,-0.214847,-23.524777,-58.26423,21.710273
1784738860.8845,09:47:40.884,27,false,0.670019,-0.362915,0.498169,0.413757,0.963882,0.095216,-0.244144,-23.654637,-58.195036,21.707553
1784738860.9159,09:47:40.915,28,false,0.673877,-0.359436,0.497559,0.411255,0.993668,0.081056,-0.249027,-23.741603,-58.072946,21.585474
1784738860.9472,09:47:40.947,29,false,0.680857,-0.354919,0.496155,0.405334,1.009781,0.103029,-0.273442,-23.819873,-57.992973,21.50551
1784738860.9783,09:47:40.978,30,false,0.683072,-0.354065,0.495361,0.40332,0.993668,0.127443,-0.283207,-23.890316,-57.861181,21.433543
1784738861.0095,09:47:41.009,31,false,0.687933,-0.352905,0.493164,0.398743,1.00441,0.163088,-0.285649,-23.983622,-57.757523,21.353819
1784738861.0406,09:47:41.040,0,false,0.689358,-0.353638,0.492371,0.396606,0.997086,0.161624,-0.285161,-24.03769,-57.649277,21.267113
1784738861.0718,09:47:41.071,1,false,0.688622,-0.35437,0.492432,0.397156,0.989761,0.144045,-0.269535,-24.116258,-57.447178,21.204032
1784738861.1029,09:47:41.102,2,false,0.686346,-0.354248,0.493225,0.400208,0.972671,0.103517,-0.260746,-24.067339,-57.414828,21.296797
1784738861.1342,09:47:41.134,3,false,0.685205,-0.353943,0.493591,0.401978,0.979995,0.099123,-0.263676,-23.963497,-57.520297,21.185886
1784738861.1656,09:47:41.165,4,false,0.6811,-0.351257,0.496277,0.407959,0.993668,0.086427,-0.260258,-23.765362,-57.615219,21.220651
1784738861.1969,09:47:41.196,5,false,0.677347,-0.348572,0.499512,0.412537,0.972671,0.096681,-0.275395,-23.811348,-57.62588,21.072493
1784738861.2283,09:47:41.228,6,false,0.67137,-0.345581,0.503845,0.419495,0.935073,0.071778,-0.262211,-23.733105,-57.785013,21.043827
1784738861.2596,09:47:41.259,7,false,0.667271,-0.343628,0.506531,0.424377,0.963882,0.023438,-0.25977,-23.662686,-57.958141,21.137659
1784738861.2907,09:47:41.290,8,false,0.662548,-0.34198,0.509155,0.429932,0.971695,0.025391,-0.252934,-23.569401,-57.93451,21.07257
1784738861.3219,09:47:41.321,9,false,0.654124,-0.340881,0.512695,0.439392,0.969741,0.013184,-0.250004,-23.42563,-58.107641,21.028943
1784738861.353,09:47:41.353,10,false,0.648664,-0.34021,0.514648,0.445679,0.94728,0.015137,-0.244633,-23.371004,-58.383091,21.064448
1784738861.3841,09:47:41.384,11,false,0.643331,-0.339661,0.516113,0.452087,0.953628,0.001953,-0.240726,-23.306888,-58.49641,21.111356
1784738861.4153,09:47:41.415,12,false,0.635788,-0.340027,0.516846,0.461548,0.957046,0.002441,-0.267582,-23.279091,-58.673168,21.018989
1784738861.4464,09:47:41.446,13,false,0.6312,-0.340088,0.517273,0.467285,0.952163,-0.015137,-0.275883,-23.119489,-58.892064,20.950813
1784738861.4776,09:47:41.477,14,false,0.624171,-0.338379,0.519409,0.475525,1.019547,-0.036133,-0.262699,-23.005754,-59.283471,21.009085
1784738861.5089,09:47:41.508,15,false,0.621487,-0.336731,0.521118,0.478333,0.991714,-0.166995,-0.238285,-22.873486,-59.590876,20.971806
1784738861.5402,09:47:41.540,16,false,0.613367,-0.329651,0.52771,0.48645,1.030289,-0.237797,-0.233402,-22.709583,-59.837633,20.773764
1784738861.5716,09:47:41.571,17,false,0.611274,-0.325867,0.530396,0.488708,1.061051,-0.295903,-0.235355,-22.352716,-60.224206,20.804879
1784738861.6029,09:47:41.602,18,false,0.609986,-0.322998,0.532166,0.490295,1.069841,-0.3252,-0.227543,-22.196029,-60.602029,20.802975
1784738861.6341,09:47:41.634,19,false,0.608053,-0.322083,0.532959,0.492432,1.052262,-0.337896,-0.187503,-21.995194,-60.882255,20.786308
1784738861.6652,09:47:41.665,20,false,0.603861,-0.32135,0.534485,0.496399,0.986343,-0.358892,-0.175784,-21.844351,-61.149412,20.756353
1784738861.6963,09:47:41.696,21,false,0.597949,-0.320618,0.534546,0.503906,0.87892,-0.376959,-0.171389,-21.798315,-61.300131,20.564902
1784738861.7275,09:47:41.727,22,false,0.596722,-0.322083,0.530396,0.508789,0.876478,-0.372564,-0.203128,-21.607345,-61.510546,20.317826
1784738861.7586,09:47:41.758,23,false,0.597517,-0.325073,0.520386,0.516235,0.854505,-0.366705,-0.253422,-21.51024,-61.595244,20.14032
1784738861.7898,09:47:41.789,24,false,0.598493,-0.327515,0.513184,0.520752,0.85597,-0.306645,-0.277836,-21.303216,-61.806056,19.801118
1784738861.8209,09:47:41.820,25,false,0.599481,-0.330811,0.506897,0.523682,0.897963,-0.255863,-0.29395,-21.027171,-61.831294,19.510791
1784738861.852,09:47:41.852,26,false,0.600626,-0.337097,0.498291,0.526611,0.887221,-0.183108,-0.305669,-20.928268,-61.704471,19.324265
1784738861.8834,09:47:41.883,27,false,0.600875,-0.340759,0.493408,0.528564,0.905776,-0.177249,-0.309087,-20.749533,-61.620237,18.887223
1784738861.9147,09:47:41.914,28,false,0.600572,-0.344543,0.48877,0.530762,0.9673,-0.146487,-0.340826,-20.723256,-61.230396,18.538746
1784738861.9461,09:47:41.946,29,false,0.601303,-0.349609,0.48291,0.531982,1.04445,-0.075685,-0.35938,-20.505207,-61.058985,18.269979
1784738861.9774,09:47:41.977,30,false,0.602328,-0.352173,0.480774,0.531067,1.081071,-0.073243,-0.361822,-20.53327,-60.949577,17.923411
1784738862.0087,09:47:42.008,31,false,0.603172,-0.35498,0.479736,0.529175,1.092302,-0.027344,-0.357427,-20.349173,-60.686618,17.656362
1784738862.0399,09:47:42.039,0,false,0.603067,-0.35614,0.479614,0.528625,1.063981,0.015137,-0.332525,-20.183486,-60.405093,17.460879
1784738862.071,09:47:42.071,1,false,0.602588,-0.362366,0.477966,0.526428,0.997574,0.039063,-0.294926,-20.153998,-60.226489,17.314852
1784738862.1022,09:47:42.102,2,false,0.602663,-0.368042,0.476013,0.52417,0.959487,0.053223,-0.280766,-20.112506,-59.901254,17.063797
1784738862.1333,09:47:42.133,3,false,0.603267,-0.378723,0.47113,0.520264,0.936538,0.120119,-0.241215,-20.000393,-59.384234,16.867755
1784738862.1644,09:47:42.164,4,false,0.603693,-0.387268,0.46698,0.517212,0.949722,0.176761,-0.219242,-19.929399,-59.068455,16.721226
1784738862.1956,09:47:42.195,5,false,0.605167,-0.395447,0.463318,0.512573,0.945327,0.192386,-0.201175,-19.940274,-58.829116,16.559441
1784738862.2267,09:47:42.226,6,false,0.609552,-0.404358,0.459167,0.504089,0.924331,0.190921,-0.203128,-19.965015,-58.434264,16.368973
1784738862.2581,09:47:42.258,7,false,0.612226,-0.409485,0.455322,0.500183,0.939956,0.210941,-0.215335,-20.062052,-57.899451,16.152691
1784738862.2894,09:47:42.289,8,false,0.617316,-0.410706,0.453613,0.494446,0.900893,0.189456,-0.228031,-20.179292,-57.373258,16.04776
1784738862.3207,09:47:42.320,9,false,0.626957,-0.407349,0.452454,0.486084,0.991226,0.177249,-0.277836,-20.165177,-56.854823,15.953322
1784738862.3521,09:47:42.352,10,false,0.633864,-0.40387,0.452271,0.480164,0.96144,0.161624,-0.291508,-20.376782,-56.388232,15.763651
1784738862.3834,09:47:42.383,11,false,0.643366,-0.396545,0.453369,0.472534,0.996597,0.125002,-0.307622,-20.507411,-55.953345,15.607901
1784738862.4148,09:47:42.414,12,false,0.645906,-0.394043,0.454224,0.470337,0.997086,0.09424,-0.333989,-20.535254,-55.651671,15.482679
1784738862.4461,09:47:42.446,13,false,0.652923,-0.388,0.456848,0.463074,0.954604,0.073243,-0.314458,-20.545358,-55.439979,15.355026
1784738862.4774,09:47:42.477,14,false,0.65871,-0.382751,0.459595,0.456482,0.97023,0.062501,-0.300786,-20.554453,-55.174687,15.240139
1784738862.5086,09:47:42.508,15,false,0.660722,-0.379517,0.462341,0.453491,0.997086,0.057618,-0.306157,-20.637407,-54.861155,15.106832
1784738862.5397,09:47:42.539,16,false,0.66177,-0.374939,0.46759,0.450378,0.979019,0.025391,-0.291508,-20.741973,-54.728515,15.091533
1784738862.5709,09:47:42.570,17,false,0.661609,-0.373291,0.469543,0.449951,0.979019,-0.02002,-0.271977,-20.611775,-54.713815,15.077764
1784738862.6022,09:47:42.602,18,false,0.659838,-0.36792,0.475708,0.4505,0.973159,-0.04004,-0.239261,-20.674043,-54.685632,15.050418
1784738862.6335,09:47:42.633,19,false,0.658115,-0.364746,0.479309,0.451782,0.971206,-0.05127,-0.231449,-20.894577,-54.495775,15.070668
1784738862.6649,09:47:42.664,20,false,0.655425,-0.359985,0.483459,0.455078,0.958022,-0.127932,-0.231449,-20.853795,-54.564165,14.99917
1784738862.6962,09:47:42.696,21,false,0.654346,-0.355774,0.485901,0.457336,1.00148,-0.143557,-0.243168,-20.861954,-54.64067,15.024545
1784738862.7276,09:47:42.727,22,false,0.653191,-0.351379,0.488342,0.459778,1.013687,-0.136233,-0.237308,-20.914157,-54.739432,15.017474
1784738862.7589,09:47:42.758,23,false,0.651219,-0.345825,0.490662,0.464294,1.00734,-0.182132,-0.282719,-20.91628,-54.79841,15.041019
1784738862.7902,09:47:42.790,24,false,0.650121,-0.342468,0.491516,0.467407,0.996109,-0.220218,-0.28809,-20.888282,-54.806629,15.032301
1784738862.8216,09:47:42.821,25,false,0.649744,-0.339722,0.491943,0.469482,0.994156,-0.195804,-0.304692,-20.803268,-54.873841,15.114178
1784738862.8527,09:47:42.852,26,false,0.650609,-0.337646,0.491821,0.46991,1.022477,-0.173831,-0.313481,-20.861341,-55.098824,15.098144
1784738862.8841,09:47:42.884,27,false,0.651796,-0.337158,0.491516,0.468933,1.000504,-0.158694,-0.309087,-20.868745,-55.047094,15.083714
1784738862.9152,09:47:42.915,28,false,0.654208,-0.336731,0.491333,0.466064,1.017105,-0.119142,-0.302739,-20.800639,-55.105214,14.921188
1784738862.9463,09:47:42.946,29,false,0.655273,-0.336609,0.491211,0.464783,1.010758,-0.066896,-0.29688,-20.799159,-55.11266,14.9095
1784738862.9775,09:47:42.977,30,false,0.657769,-0.335449,0.492004,0.461243,1.049332,0.00293,-0.279789,-20.872596,-55.044592,14.89898
1784738863.0088,09:47:43.008,31,false,0.657955,-0.334656,0.493835,0.459595,1.035172,-0.008301,-0.266606,-20.93869,-55.013239,14.844651
1784738863.0401,09:47:43.040,0,false,0.65729,-0.333618,0.496155,0.458801,0.892592,-0.007324,-0.271489,-20.923405,-55.05979,14.840616
1784738863.0715,09:47:43.071,1,false,0.658627,-0.333252,0.495361,0.458008,0.89015,-0.02002,-0.315435,-20.804971,-55.026917,14.792123
1784738863.1028,09:47:43.102,2,false,0.661034,-0.332458,0.49353,0.457092,0.892103,-0.038575,-0.335943,-20.862873,-54.907608,14.733526
1784738863.134,09:47:43.134,3,false,0.66438,-0.331116,0.491516,0.455383,0.98732,-0.004395,-0.353033,-20.780401,-55.039492,14.635927
1784738863.1651,09:47:43.165,4,false,0.664811,-0.330872,0.491211,0.455261,0.989761,-0.001953,-0.340826,-20.706176,-55.008649,14.652764
1784738863.1962,09:47:43.196,5,false,0.663219,-0.332153,0.490967,0.456909,0.982437,-0.000977,-0.309087,-20.729096,-54.936028,14.652964
1784738863.2274,09:47:43.227,6,false,0.661996,-0.332642,0.49115,0.45813,0.954604,-0.027832,-0.294438,-20.854401,-55.06507,14.623237
1784738863.2585,09:47:43.258,7,false,0.660899,-0.332153,0.49176,0.459412,0.940932,-0.046876,-0.278325,-20.772776,-55.181207,14.596482
1784738863.2897,09:47:43.289,8,false,0.659948,-0.329407,0.49408,0.460266,0.952651,0.01416,-0.302251,-20.893713,-55.136193,14.542495
1784738863.3208,09:47:43.320,9,false,0.659701,-0.327148,0.49585,0.460327,0.934096,0.016114,-0.281743,-20.897879,-55.260171,14.613537
1784738863.3521,09:47:43.352,10,false,0.659274,-0.325317,0.49762,0.460327,0.952651,0.064454,-0.286137,-20.961444,-55.461476,14.587752
1784738863.3835,09:47:43.383,11,false,0.657848,-0.324951,0.499573,0.46051,0.950698,0.082521,-0.283696,-20.943884,-55.582834,14.639315
1784738863.4148,09:47:43.414,12,false,0.656053,-0.325684,0.499878,0.462219,0.933608,0.066407,-0.286625,-20.898172,-55.796733,14.655814
1784738863.4462,09:47:43.446,13,false,0.651804,-0.328979,0.498108,0.467773,0.958511,0.107424,-0.286137,-20.901892,-55.675212,14.820201
1784738863.4775,09:47:43.477,14,false,0.649812,-0.331299,0.496643,0.470459,0.995132,0.094728,-0.320317,-20.725795,-55.86492,14.728888
1784738863.5086,09:47:43.508,15,false,0.643125,-0.340088,0.491089,0.479126,0.981949,0.112795,-0.295415,-20.567307,-55.916026,14.826153
1784738863.5398,09:47:43.539,16,false,0.637986,-0.348633,0.485596,0.485413,0.955581,0.129885,-0.294438,-20.604114,-56.036791,14.868829
1784738863.5709,09:47:43.570,17,false,0.630333,-0.364563,0.473572,0.495483,0.960464,0.1084,-0.304204,-20.682102,-56.07071,14.877331
1784738863.6021,09:47:43.602,18,false,0.626188,-0.375,0.464539,0.501465,0.976089,0.070802,-0.302251,-20.602753,-55.817114,14.855074
1784738863.6332,09:47:43.633,19,false,0.6224,-0.384583,0.45575,0.506958,0.991714,0.087404,-0.304204,-20.516385,-55.82814,14.775228
1784738863.6643,09:47:43.664,20,false,0.617112,-0.398132,0.443909,0.513428,0.981949,0.061036,-0.309087,-20.513422,-55.464216,14.494012
1784738863.6955,09:47:43.695,21,false,0.615424,-0.405334,0.437927,0.514954,0.98732,0.062989,-0.309575,-20.480849,-55.07687,14.390457
1784738863.7266,09:47:43.726,22,false,0.614552,-0.411011,0.433044,0.515625,0.974136,0.031739,-0.303716,-20.436579,-54.563766,14.177626
1784738863.758,09:47:43.758,23,false,0.616985,-0.41394,0.430481,0.512512,0.974136,0.061524,-0.30811,-20.411689,-54.161788,14.001032
1784738863.7893,09:47:43.789,24,false,0.621329,-0.413086,0.431702,0.506897,0.974136,0.082521,-0.317876,-20.374335,-53.785054,13.827144
1784738863.8206,09:47:43.820,25,false,0.629209,-0.410522,0.434082,0.497131,0.934585,0.104982,-0.302251,-20.400532,-53.281501,13.685598
1784738863.852,09:47:43.852,26,false,0.634717,-0.408203,0.435059,0.49115,0.940932,0.114748,-0.316899,-20.483924,-52.992795,13.543254
1784738863.8833,09:47:43.883,27,false,0.639655,-0.40564,0.435913,0.486084,0.957046,0.102052,-0.306645,-20.364577,-52.613329,13.385236
1784738863.9147,09:47:43.914,28,false,0.645725,-0.401428,0.437622,0.47998,0.98146,0.086427,-0.317388,-20.526334,-52.34658,13.16825
1784738863.946,09:47:43.946,29,false,0.649284,-0.398743,0.439209,0.475952,0.968765,0.085939,-0.312993,-20.372839,-52.076597,13.002871
1784738863.9771,09:47:43.977,30,false,0.653389,-0.396057,0.441528,0.470398,0.965835,0.102541,-0.308598,-20.33937,-51.833613,13.003568
1784738864.0083,09:47:44.008,31,false,0.654553,-0.395203,0.442322,0.46875,0.949233,0.07129,-0.303227,-20.309247,-51.644834,12.959334
1784738864.0394,09:47:44.039,0,false,0.657821,-0.39209,0.44519,0.46405,0.968765,0.065919,-0.304692,-20.37186,-51.430072,12.979339
1784738864.0706,09:47:44.070,1,false,0.660036,-0.389465,0.447632,0.460754,0.958511,0.061524,-0.305669,-20.26372,-51.356417,12.937527
1784738864.1017,09:47:44.101,2,false,0.663081,-0.384644,0.45166,0.456482,0.959487,0.045411,-0.296391,-20.390701,-51.290128,12.944759
1784738864.133,09:47:44.133,3,false,0.664395,-0.380859,0.454834,0.45459,0.9673,0.038087,-0.304204,-20.400307,-51.230467,12.771821
1784738864.1644,09:47:44.164,4,false,0.665672,-0.376465,0.458557,0.452637,0.978531,0.035157,-0.318364,-20.423907,-51.131911,12.810577
1784738864.1957,09:47:44.195,5,false,0.667146,-0.369995,0.464111,0.450134,0.973648,0.043458,-0.303716,-20.325515,-51.177796,12.875365
1784738864.2271,09:47:44.227,6,false,0.668176,-0.365967,0.467407,0.448486,0.968276,0.036133,-0.295415,-20.34164,-51.17423,12.843951
1784738864.2584,09:47:44.258,7,false,0.668665,-0.362732,0.470215,0.447449,0.976577,0.058595,-0.301762,-20.460829,-51.350467,12.890448
1784738864.2895,09:47:44.289,8,false,0.668144,-0.359131,0.473938,0.447205,0.978531,0.012696,-0.286137,-20.478376,-51.419357,12.917341
1784738864.3209,09:47:44.320,9,false,0.667448,-0.356567,0.476501,0.447571,0.963394,-0.004883,-0.296391,-20.374538,-51.630896,12.911637
1784738864.352,09:47:44.352,10,false,0.666833,-0.352173,0.480896,0.447266,0.972183,-0.002441,-0.285649,-20.26613,-51.686697,12.921458
1784738864.3832,09:47:44.383,11,false,0.666835,-0.350952,0.482239,0.446777,0.957046,0.039551,-0.278813,-20.318101,-51.736918,12.960204
1784738864.4143,09:47:44.414,12,false,0.667112,-0.347961,0.485535,0.445129,0.960952,0.039551,-0.271,-20.260198,-51.931656,13.144614
1784738864.4454,09:47:44.445,13,false,0.667454,-0.346497,0.487061,0.444092,0.947768,0.045899,-0.273442,-20.297808,-52.166735,13.250767
1784738864.4766,09:47:44.476,14,false,0.667708,-0.346008,0.487671,0.44342,0.953628,0.075685,-0.276371,-20.271842,-52.348398,13.181813
1784738864.5079,09:47:44.507,15,false,0.667302,-0.348999,0.485535,0.444031,0.968765,0.085451,-0.27686,-20.308288,-52.392264,13.254339
1784738864.5393,09:47:44.539,16,false,0.666953,-0.351074,0.48407,0.444519,0.978531,0.101564,-0.271977,-20.370997,-52.506513,13.274751
1784738864.5706,09:47:44.570,17,false,0.66549,-0.361328,0.476685,0.446472,0.959976,0.123049,-0.285161,-20.322758,-52.489706,13.44266
1784738864.6019,09:47:44.601,18,false,0.664011,-0.370728,0.469177,0.448914,0.963882,0.099123,-0.286625,-20.369066,-52.504488,13.474148
1784738864.6333,09:47:44.633,19,false,0.661187,-0.384888,0.456177,0.454529,0.990249,0.066407,-0.306157,-20.39579,-52.383207,13.472579
1784738864.6644,09:47:44.664,20,false,0.658747,-0.391541,0.449036,0.459473,0.991714,0.02295,-0.319829,-20.479656,-52.18433,13.381443
1784738864.6956,09:47:44.695,21,false,0.656191,-0.394287,0.444763,0.464905,1.006363,0.000977,-0.340826,-20.420552,-51.915619,13.105022
1784738864.7267,09:47:44.726,22,false,0.65274,-0.3927,0.444824,0.471008,0.989761,-0.002441,-0.339849,-20.472034,-51.778455,13.110458
1784738864.7578,09:47:44.757,23,false,0.651583,-0.38855,0.448853,0.472229,0.961929,0.02295,-0.318364,-20.398738,-51.669962,12.995719
1784738864.789,09:47:44.789,24,false,0.651333,-0.382202,0.455261,0.471619,0.958022,0.009766,-0.312016,-20.362679,-51.392872,12.847593
1784738864.8201,09:47:44.820,25,false,0.651909,-0.368652,0.468567,0.468567,0.935073,-0.013184,-0.294926,-20.300318,-51.367799,12.759141
1784738864.8512,09:47:44.851,26,false,0.654142,-0.3573,0.478577,0.464111,0.924819,-0.041993,-0.299809,-20.274101,-51.494771,12.709442
1784738864.8824,09:47:44.882,27,false,0.662371,-0.339478,0.492126,0.451477,0.952163,-0.090333,-0.296391,-20.38509,-51.773538,12.829205
1784738864.9137,09:47:44.913,28,false,0.666049,-0.333618,0.496216,0.445923,1.008316,-0.065431,-0.317388,-20.499934,-51.889844,12.922038
1784738864.9451,09:47:44.945,29,false,0.678001,-0.317261,0.507019,0.427307,1.001968,-0.075196,-0.320806,-20.423848,-52.173966,13.005588
1784738864.9764,09:47:44.976,30,false,0.68629,-0.307983,0.512695,0.413879,0.988785,-0.055177,-0.324712,-20.43014,-52.474537,13.080782
1784738865.0077,09:47:45.007,31,false,0.701152,-0.293762,0.520508,0.388794,0.987808,-0.01416,-0.330571,-20.435802,-52.924497,13.357811
1784738865.0391,09:47:45.039,0,false,0.710158,-0.285889,0.525146,0.371704,1.00441,0.062501,-0.324712,-20.60539,-53.239738,13.622091
1784738865.0702,09:47:45.070,1,false,0.715848,-0.281677,0.528809,0.358582,0.997574,0.088869,-0.327642,-20.698204,-53.508501,13.844989
1784738865.1014,09:47:45.101,2,false,0.721196,-0.276917,0.535095,0.341858,0.944839,0.161135,-0.286625,-20.87146,-53.795249,14.239997
1784738865.1325,09:47:45.132,3,false,0.7235,-0.274048,0.539368,0.332458,0.939956,0.170901,-0.28809,-20.922713,-54.128091,14.700182
1784738865.1636,09:47:45.163,4,false,0.723524,-0.273499,0.54248,0.327759,0.93312,0.173831,-0.260746,-21.103426,-54.412696,15.129301
1784738865.1948,09:47:45.194,5,false,0.72365,-0.2677,0.549072,0.321228,0.963394,0.134768,-0.238773,-21.43056,-54.728655,15.605232
1784738865.2259,09:47:45.225,6,false,0.721983,-0.26355,0.553223,0.321289,0.957534,0.114748,-0.227054,-21.560488,-54.983111,16.168154
1784738865.2571,09:47:45.257,7,false,0.718199,-0.259949,0.556946,0.326233,0.954116,0.043946,-0.233402,-21.692376,-55.376613,16.689738
1784738865.2884,09:47:45.288,8,false,0.715334,-0.260376,0.557007,0.332031,0.952651,0.00293,-0.233402,-21.751261,-55.835442,17.14421
1784738865.3197,09:47:45.319,9,false,0.714084,-0.260803,0.555847,0.336304,0.998062,-0.065431,-0.249516,-21.864073,-56.29325,17.493419
1784738865.3511,09:47:45.351,10,false,0.714139,-0.262207,0.552917,0.339905,0.971695,-0.086427,-0.241215,-22.055326,-56.585646,17.89743
1784738865.3824,09:47:45.382,11,false,0.714187,-0.265869,0.549133,0.343079,0.976577,-0.061036,-0.272465,-22.048008,-56.878711,18.26104
1784738865.4138,09:47:45.413,12,false,0.715495,-0.272339,0.542847,0.345276,0.995132,-0.000488,-0.264652,-22.131145,-57.082653,18.423797
1784738865.4449,09:47:45.444,13,false,0.715858,-0.274719,0.540894,0.345703,1.006363,0.0542,-0.274418,-22.295692,-57.176478,18.600186
1784738865.476,09:47:45.476,14,false,0.715837,-0.281433,0.536316,0.347473,0.989273,0.083497,-0.279789,-22.264337,-57.081475,18.863613
1784738865.5072,09:47:45.507,15,false,0.714618,-0.285461,0.534302,0.349792,0.969253,0.096681,-0.274907,-22.266026,-57.040833,18.99602
1784738865.5383,09:47:45.538,16,false,0.711308,-0.290771,0.532227,0.355286,0.983413,0.121584,-0.268559,-22.282499,-57.303333,19.160048
1784738865.5695,09:47:45.569,17,false,0.707819,-0.293518,0.531799,0.360596,0.980484,0.110353,-0.263676,-22.297326,-57.360136,19.352535
1784738865.6006,09:47:45.600,18,false,0.703155,-0.294739,0.532715,0.36731,0.988785,0.073732,-0.277348,-22.490115,-57.500982,19.540727
1784738865.6317,09:47:45.631,19,false,0.694661,-0.294495,0.53595,0.378784,0.958022,0.003906,-0.263676,-22.514088,-57.702513,19.635331
1784738865.6631,09:47:45.663,20,false,0.68945,-0.294067,0.538208,0.385376,0.963394,-0.030762,-0.25391,-22.505755,-57.824075,19.810197
1784738865.6944,09:47:45.694,21,false,0.685182,-0.294434,0.539673,0.390625,0.966812,-0.09131,-0.237308,-22.602933,-58.038158,19.98253
1784738865.7258,09:47:45.725,22,false,0.68201,-0.297485,0.539978,0.393433,0.979507,-0.115236,-0.23389,-22.705346,-58.200925,20.122677
1784738865.7571,09:47:45.757,23,false,0.681845,-0.30127,0.538574,0.392761,0.990738,-0.081544,-0.230961,-22.633027,-58.482,20.443208
1784738865.7884,09:47:45.788,24,false,0.683868,-0.307068,0.534851,0.389832,1.007828,-0.074708,-0.237308,-22.687569,-58.645244,20.612056
1784738865.8196,09:47:45.819,25,false,0.684983,-0.30896,0.533264,0.38855,0.991714,-0.011231,-0.245121,-22.631981,-58.792164,20.838788
1784738865.8507,09:47:45.850,26,false,0.688328,-0.313843,0.528564,0.385132,1.010758,0.067872,-0.258793,-22.806259,-58.774853,20.863401
1784738865.8819,09:47:45.881,27,false,0.68919,-0.316772,0.526489,0.384033,1.000992,0.089845,-0.267582,-22.813571,-58.834043,20.91546
1784738865.913,09:47:45.913,28,false,0.688137,-0.31958,0.525635,0.384766,0.977066,0.103029,-0.271489,-22.760336,-58.827498,21.126806
1784738865.9441,09:47:45.944,29,false,0.685983,-0.320129,0.526367,0.387146,0.96144,0.107424,-0.245609,-22.832056,-58.821608,21.137571
1784738865.9755,09:47:45.975,30,false,0.682654,-0.319885,0.527954,0.391052,0.954604,0.098146,-0.244144,-23.061095,-58.980799,21.26689
1784738866.0066,09:47:46.006,31,false,0.67626,-0.318054,0.53125,0.399109,0.968765,0.015625,-0.231449,-23.132647,-58.959579,21.293554
1784738866.038,09:47:46.038,0,false,0.672285,-0.317505,0.532837,0.404114,0.970718,-0.013672,-0.240238,-23.197043,-59.090019,21.362413
1784738866.0693,09:47:46.069,1,false,0.668584,-0.31897,0.533081,0.408752,0.968765,-0.070314,-0.222171,-23.120415,-59.1476,21.364571
1784738866.1006,09:47:46.100,2,false,0.668022,-0.320862,0.531616,0.410095,1.00734,-0.094728,-0.221195,-23.215942,-59.244284,21.47119
1784738866.132,09:47:46.132,3,false,0.668954,-0.322327,0.529602,0.410034,1.009781,-0.06836,-0.224613,-23.346778,-59.316346,21.522286
1784738866.1633,09:47:46.163,4,false,0.671575,-0.324097,0.526184,0.408752,1.019547,-0.004883,-0.23682,-23.314991,-59.381202,21.523411
1784738866.1947,09:47:46.194,5,false,0.672937,-0.325378,0.52417,0.408081,1.006851,0.018067,-0.25391,-23.301338,-59.484434,21.479561
1784738866.2258,09:47:46.225,6,false,0.673473,-0.326721,0.522644,0.408081,0.997574,0.055665,-0.262211,-23.199326,-59.41285,21.410189
1784738866.2569,09:47:46.256,7,false,0.672984,-0.328003,0.521851,0.408875,0.994156,0.06836,-0.251957,-23.197239,-59.438148,21.482339
1784738866.2881,09:47:46.288,8,false,0.671104,-0.328796,0.522095,0.411011,0.976577,0.083986,-0.251469,-23.090684,-59.326331,21.502412
1784738866.3192,09:47:46.319,9,false,0.666533,-0.328735,0.523682,0.416443,0.956069,0.066407,-0.230472,-23.069553,-59.405142,21.49057
1784738866.3503,09:47:46.350,10,false,0.664642,-0.32843,0.524475,0.418701,0.956558,0.029297,-0.239261,-23.080443,-59.431211,21.584589
1784738866.3815,09:47:46.381,11,false,0.658596,-0.327637,0.526794,0.425903,0.976089,-0.019532,-0.222171,-23.07529,-59.514488,21.624345
1784738866.4128,09:47:46.412,12,false,0.654314,-0.327332,0.528198,0.430969,0.965835,-0.03125,-0.229984,-23.17533,-59.529622,21.704987
1784738866.4442,09:47:46.444,13,false,0.649553,-0.328308,0.528503,0.437012,0.993668,-0.07422,-0.233402,-22.936381,-59.707735,21.687841
1784738866.4755,09:47:46.475,14,false,0.647609,-0.330566,0.5271,0.43988,0.990738,-0.104005,-0.218265,-22.990496,-59.868036,21.597641
1784738866.5068,09:47:46.506,15,false,0.646893,-0.332825,0.52533,0.441345,1.011246,-0.11133,-0.221195,-23.054153,-59.967446,21.680953
1784738866.5382,09:47:46.538,16,false,0.646616,-0.335144,0.52301,0.442749,0.998062,-0.080079,-0.225589,-23.021722,-59.967192,21.74098
1784738866.5695,09:47:46.569,17,false,0.647107,-0.335571,0.521973,0.442932,1.003922,-0.066896,-0.23682,-22.887857,-59.937055,21.705282
1784738866.6009,09:47:46.600,18,false,0.647677,-0.335144,0.521851,0.442566,0.986343,-0.036133,-0.247562,-22.872055,-59.82021,21.732968
1784738866.632,09:47:46.632,19,false,0.648174,-0.333191,0.522949,0.442017,0.971695,0.011719,-0.248539,-22.857833,-59.894494,21.683117
1784738866.6631,09:47:46.663,20,false,0.647957,-0.331238,0.524353,0.442139,0.970718,0.003906,-0.234867,-22.785219,-59.946397,21.683112
1784738866.6943,09:47:46.694,21,false,0.646642,-0.328125,0.526794,0.443481,0.961929,0.005859,-0.239261,-22.794634,-60.142648,21.503662
1784738866.7254,09:47:46.725,22,false,0.645407,-0.32666,0.528137,0.444763,0.973648,-0.02002,-0.243656,-22.608709,-60.169735,21.521603
1784738866.7568,09:47:46.756,23,false,0.643838,-0.325562,0.529236,0.446533,0.986343,-0.045411,-0.240238,-22.590914,-60.164206,21.612519
1784738866.7881,09:47:46.788,24,false,0.642335,-0.324829,0.530273,0.447998,0.988785,-0.079103,-0.237308,-22.544991,-60.308768,21.739204
1784738866.8194,09:47:46.819,25,false,0.641384,-0.324524,0.530579,0.449219,0.993668,-0.112795,-0.242191,-22.413938,-60.334197,21.718637
1784738866.8508,09:47:46.850,26,false,0.642223,-0.32489,0.529907,0.448547,1.013687,-0.109865,-0.229984,-22.475435,-60.431852,21.59545
1784738866.8821,09:47:46.882,27,false,0.642583,-0.325195,0.529541,0.448242,0.999039,-0.075196,-0.244633,-22.44106,-60.54965,21.469627
1784738866.9135,09:47:46.913,28,false,0.644062,-0.325623,0.528564,0.44696,0.985367,-0.043458,-0.240238,-22.440031,-60.655667,21.281618
1784738866.9448,09:47:46.944,29,false,0.644705,-0.325684,0.528259,0.44635,0.982925,-0.027832,-0.235843,-22.394242,-60.586591,21.306809
1784738866.9759,09:47:46.975,30,false,0.645069,-0.325134,0.528564,0.445862,0.977066,-0.033204,-0.23975,-22.293217,-60.718822,21.389297
1784738867.0071,09:47:47.007,31,false,0.644466,-0.324768,0.529114,0.44635,0.959487,-0.015625,-0.226566,-22.277064,-60.807923,21.538305
1784738867.0382,09:47:47.038,0,false,0.643744,-0.32428,0.529724,0.447021,0.970718,-0.023926,-0.230472,-22.27748,-60.858205,21.50792
1784738867.0694,09:47:47.069,1,false,0.642481,-0.324402,0.530151,0.448242,0.977554,-0.06836,-0.227543,-22.218039,-60.783829,21.465619
1784738867.1005,09:47:47.100,2,false,0.642044,-0.324951,0.529724,0.448975,0.977554,-0.078614,-0.229007,-22.343988,-60.701937,21.442503
1784738867.1316,09:47:47.131,3,false,0.641807,-0.325684,0.528992,0.449646,0.991714,-0.078126,-0.228031,-22.277896,-60.792726,21.616098
1784738867.163,09:47:47.163,4,false,0.641871,-0.326904,0.527588,0.450317,0.992691,-0.089845,-0.229007,-22.263275,-60.829574,21.622795
1784738867.1943,09:47:47.194,5,false,0.642057,-0.327454,0.526917,0.450439,0.979995,-0.086427,-0.243656,-22.205255,-60.862738,21.598915
1784738867.2257,09:47:47.225,6,false,0.641981,-0.328247,0.526306,0.450684,0.987808,-0.060548,-0.249027,-22.197898,-60.787908,21.427885
1784738867.257,09:47:47.257,7,false,0.642012,-0.328369,0.526245,0.450623,0.98732,-0.046876,-0.236332,-22.191277,-60.720562,21.393588
1784738867.2883,09:47:47.288,8,false,0.641932,-0.328369,0.526917,0.449951,0.976577,-0.05127,-0.23389,-22.245133,-60.779581,21.272998
1784738867.3197,09:47:47.319,9,false,0.641808,-0.328369,0.527588,0.449341,0.978531,-0.032227,-0.232425,-22.248742,-60.698113,21.224282
1784738867.3508,09:47:47.350,10,false,0.641014,-0.329163,0.527954,0.449463,0.979995,-0.052735,-0.217777,-22.192175,-60.639746,21.240253
1784738867.382,09:47:47.382,11,false,0.640282,-0.329529,0.528198,0.449951,0.991714,-0.057618,-0.221195,-22.096403,-60.781616,21.164904
1784738867.4131,09:47:47.413,12,false,0.639611,-0.329773,0.528442,0.450439,0.984878,-0.063966,-0.217288,-22.05507,-60.670037,21.156905
1784738867.4442,09:47:47.444,13,false,0.638962,-0.330017,0.528503,0.451111,0.98732,-0.070802,-0.222171,-22.152454,-60.7042,21.194568
1784738867.4756,09:47:47.475,14,false,0.63852,-0.330078,0.528687,0.451477,1.008804,-0.066407,-0.229007,-22.030747,-60.719994,21.243418
1784738867.5069,09:47:47.506,15,false,0.638004,-0.330505,0.528625,0.451965,0.997086,-0.040528,-0.221683,-22.175425,-60.823931,21.272429
1784738867.5383,09:47:47.538,16,false,0.637359,-0.33197,0.527649,0.452942,0.985367,-0.030762,-0.206546,-22.096282,-60.932428,21.253678
1784738867.5696,09:47:47.569,17,false,0.636286,-0.334473,0.525574,0.455017,0.978531,0.003418,-0.197269,-22.234407,-60.895491,21.281663
1784738867.6009,09:47:47.600,18,false,0.632758,-0.343262,0.517334,0.462769,0.967788,0.062013,-0.216312,-22.179273,-60.847294,21.217127
1784738867.6323,09:47:47.632,19,false,0.628628,-0.351257,0.508545,0.472046,0.962417,0.036622,-0.235843,-22.114699,-60.639424,21.144091
1784738867.6636,09:47:47.663,20,false,0.623648,-0.359619,0.498474,0.482971,0.982437,-0.008789,-0.273442,-22.131351,-60.571972,21.078358
1784738867.695,09:47:47.695,21,false,0.615207,-0.372864,0.482239,0.499939,0.987808,-0.025879,-0.295903,-21.981846,-60.45145,20.779937
1784738867.7263,09:47:47.726,22,false,0.609574,-0.381348,0.471313,0.510742,0.965347,-0.027344,-0.30811,-21.847292,-60.238303,20.376774
1784738867.7574,09:47:47.757,23,false,0.598695,-0.39502,0.453674,0.52887,0.974136,-0.073732,-0.330571,-21.786008,-59.762348,19.879342
